"","subject_ids","X1","X1_1","diff_species","choice","Imj1","Imj2","Img3","CamNum","SD_card_num","ForestType","ForestName","round","batch","Date_Out","Date_Checked"
"1",31428286,1,1,1,"NOTHINGHERE","03_05_SH_000001.JPG","03_05_SH_000002.JPG","03_05_SH_000003.JPG","3","5","Deciduous","SH","1",1,"11/14/18","2/11/19"
"2",31428287,2,2,2,"NOTHINGHERE","03_05_SH_000004.JPG","03_05_SH_000005.JPG","03_05_SH_000006.JPG","3","5","Deciduous","SH","1",1,"11/14/18","2/11/19"
"3",31428288,3,3,1,"NOTHINGHERE","03_05_SH_000007.JPG","03_05_SH_000008.JPG","03_05_SH_000009.JPG","3","5","Deciduous","SH","1",1,"11/14/18","2/11/19"
"4",31428289,4,4,1,"NOTHINGHERE","03_05_SH_000010.JPG","03_05_SH_000011.JPG","03_05_SH_000012.JPG","3","5","Deciduous","SH","1",1,"11/14/18","2/11/19"
"5",31428290,12813,12813,1,"DEERWHITETAILED","03_05_SH_000013.JPG","03_05_SH_000014.JPG","03_05_SH_000015.JPG","3","5","Deciduous","SH","1",1,"11/14/18","2/11/19"
"6",31428291,5,5,1,"NOTHINGHERE","04_26_WF_000001.JPG","04_26_WF_000002.JPG","04_26_WF_000003.JPG","4","26","Pine","WF","1",1,"11/17/18","1/31/19"
"7",31428292,6,6,1,"NOTHINGHERE","04_26_WF_000004.JPG","04_26_WF_000005.JPG","04_26_WF_000006.JPG","4","26","Pine","WF","1",1,"11/17/18","1/31/19"
"8",31428293,7,7,1,"NOTHINGHERE","04_26_WF_000007.JPG","04_26_WF_000008.JPG","04_26_WF_000009.JPG","4","26","Pine","WF","1",1,"11/17/18","1/31/19"
"9",31428294,8,8,1,"NOTHINGHERE","04_26_WF_000010.JPG","04_26_WF_000011.JPG","04_26_WF_000012.JPG","4","26","Pine","WF","1",1,"11/17/18","1/31/19"
"10",31428295,9,9,1,"TURKEY","04_26_WF_000013.JPG","04_26_WF_000014.JPG","04_26_WF_000015.JPG","4","26","Pine","WF","1",1,"11/17/18","1/31/19"
"11",31428296,10,10,1,"NOTHINGHERE","04_26_WF_000016.JPG","04_26_WF_000017.JPG","04_26_WF_000018.JPG","4","26","Pine","WF","1",1,"11/17/18","1/31/19"
"12",31428297,11,11,1,"DEERWHITETAILED","04_26_WF_000019.JPG","04_26_WF_000020.JPG","04_26_WF_000021.JPG","4","26","Pine","WF","1",1,"11/17/18","1/31/19"
"13",31428298,12,12,1,"DEERWHITETAILED","04_26_WF_000022.JPG","04_26_WF_000023.JPG","04_26_WF_000024.JPG","4","26","Pine","WF","1",1,"11/17/18","1/31/19"
"14",31428299,13,13,1,"DEERWHITETAILED","04_26_WF_000025.JPG","04_26_WF_000026.JPG","04_26_WF_000027.JPG","4","26","Pine","WF","1",1,"11/17/18","1/31/19"
"15",31428300,14,14,1,"DEERWHITETAILED","04_26_WF_000028.JPG","04_26_WF_000029.JPG","04_26_WF_000030.JPG","4","26","Pine","WF","1",1,"11/17/18","1/31/19"
"16",31428301,12812,12812,1,"COYOTE","04_26_WF_000031.JPG","04_26_WF_000032.JPG","04_26_WF_000033.JPG","4","26","Pine","WF","1",1,"11/17/18","1/31/19"
"17",31428302,15,15,1,"DEERWHITETAILED","04_26_WF_000034.JPG","04_26_WF_000035.JPG","04_26_WF_000036.JPG","4","26","Pine","WF","1",1,"11/17/18","1/31/19"
"18",31428303,16,16,1,"DOMESTICDOG","04_26_WF_000037.JPG","04_26_WF_000038.JPG","04_26_WF_000039.JPG","4","26","Pine","WF","1",1,"11/17/18","1/31/19"
"19",31428304,17,17,1,"COYOTE","04_26_WF_000040.JPG","04_26_WF_000041.JPG","04_26_WF_000042.JPG","4","26","Pine","WF","1",1,"11/17/18","1/31/19"
"20",31428305,18,18,1,"HUMAN","04_26_WF_000043.JPG","04_26_WF_000044.JPG","04_26_WF_000045.JPG","4","26","Pine","WF","1",1,"11/17/18","1/31/19"
"21",31428306,19,19,1,"COYOTE","04_26_WF_000046.JPG","04_26_WF_000047.JPG","04_26_WF_000048.JPG","4","26","Pine","WF","1",1,"11/17/18","1/31/19"
"22",31428307,20,20,1,"NOTHINGHERE","04_26_WF_000049.JPG","04_26_WF_000050.JPG","04_26_WF_000051.JPG","4","26","Pine","WF","1",1,"11/17/18","1/31/19"
"23",31428308,21,21,2,"SOMETHINGHERE","08_23_DEG_000001.JPG","08_23_DEG_000002.JPG","08_23_DEG_000003.JPG","8","23","Pine","DEG","1",1,"11/26/18","2/7/19"
"24",31428309,22,22,1,"DEERWHITETAILED","08_23_DEG_000004.JPG","08_23_DEG_000005.JPG","08_23_DEG_000006.JPG","8","23","Pine","DEG","1",1,"11/26/18","2/7/19"
"25",31428310,12811,12811,1,"COTTONTAILRABBIT","08_23_DEG_000007.JPG","08_23_DEG_000008.JPG","08_23_DEG_000009.JPG","8","23","Pine","DEG","1",1,"11/26/18","2/7/19"
"26",31428311,23,23,1,"NOTHINGHERE","08_23_DEG_000010.JPG","08_23_DEG_000011.JPG","08_23_DEG_000012.JPG","8","23","Pine","DEG","1",1,"11/26/18","2/7/19"
"27",31428312,12810,12810,1,"COTTONTAILRABBIT","08_23_DEG_000013.JPG","08_23_DEG_000014.JPG","08_23_DEG_000015.JPG","8","23","Pine","DEG","1",1,"11/26/18","2/7/19"
"28",31428313,24,24,1,"DEERWHITETAILED","09_25_WF_000001.JPG","09_25_WF_000002.JPG","09_25_WF_000003.JPG","9","25","Pine","WF","1",1,"11/17/18","1/31/19"
"29",31428314,25,25,1,"SQUIRRELGRAY","09_25_WF_000004.JPG","09_25_WF_000005.JPG","09_25_WF_000006.JPG","9","25","Pine","WF","1",1,"11/17/18","1/31/19"
"30",31428315,26,26,1,"DEERWHITETAILED","11_13_BC_000002.JPG","11_13_BC_000001.JPG","11_13_BC_000003.JPG","11","13","Deciduous","BC","1",1,"11/15/18","3/4/19"
"31",31428316,27,27,1,"DEERWHITETAILED","11_13_BC_000004.JPG","11_13_BC_000005.JPG","11_13_BC_000006.JPG","11","13","Deciduous","BC","1",1,"11/15/18","3/4/19"
"32",31428317,28,28,1,"NOTHINGHERE","11_13_BC_000007.JPG","11_13_BC_000008.JPG","11_13_BC_000009.JPG","11","13","Deciduous","BC","1",1,"11/15/18","3/4/19"
"33",31428318,29,29,1,"NOTHINGHERE","11_13_BC_000010.JPG","11_13_BC_000011.JPG","11_13_BC_000012.JPG","11","13","Deciduous","BC","1",1,"11/15/18","3/4/19"
"34",31428319,30,30,2,"PORCUPINE","11_13_BC_000013.JPG","11_13_BC_000014.JPG","11_13_BC_000015.JPG","11","13","Deciduous","BC","1",1,"11/15/18","3/4/19"
"35",31428320,12809,12809,1,"SOMETHINGHERE","11_13_BC_000016.JPG","11_13_BC_000017.JPG","11_13_BC_000018.JPG","11","13","Deciduous","BC","1",1,"11/15/18","3/4/19"
"36",31428321,31,31,1,"SQUIRRELGRAY","11_13_BC_000019.JPG","11_13_BC_000020.JPG","11_13_BC_000021.JPG","11","13","Deciduous","BC","1",1,"11/15/18","3/4/19"
"37",31428322,32,32,1,"SQUIRRELGRAY","11_13_BC_000022.JPG","11_13_BC_000023.JPG","11_13_BC_000024.JPG","11","13","Deciduous","BC","1",1,"11/15/18","3/4/19"
"38",31428323,12808,12808,1,"SQUIRRELGRAY","11_13_BC_000025.JPG","11_13_BC_000026.JPG","11_13_BC_000027.JPG","11","13","Deciduous","BC","1",1,"11/15/18","3/4/19"
"39",31428324,33,33,2,"SQUIRRELGRAY","11_13_BC_000028.JPG","11_13_BC_000029.JPG","11_13_BC_000030.JPG","11","13","Deciduous","BC","1",1,"11/15/18","3/4/19"
"40",31428325,34,34,1,"SQUIRRELGRAY","11_13_BC_000031.JPG","11_13_BC_000032.JPG","11_13_BC_000033.JPG","11","13","Deciduous","BC","1",1,"11/15/18","3/4/19"
"41",31428326,35,35,2,"SQUIRRELGRAY","11_13_BC_000034.JPG","11_13_BC_000035.JPG","11_13_BC_000036.JPG","11","13","Deciduous","BC","1",1,"11/15/18","3/4/19"
"42",31428327,36,36,1,"NOTHINGHERE","11_13_BC_000037.JPG","11_13_BC_000038.JPG","11_13_BC_000039.JPG","11","13","Deciduous","BC","1",1,"11/15/18","3/4/19"
"43",31428328,37,37,1,"SQUIRRELGRAY","11_13_BC_000040.JPG","11_13_BC_000041.JPG","11_13_BC_000042.JPG","11","13","Deciduous","BC","1",1,"11/15/18","3/4/19"
"44",31428329,12807,12807,1,"SQUIRRELGRAY","11_13_BC_000043.JPG","11_13_BC_000044.JPG","11_13_BC_000045.JPG","11","13","Deciduous","BC","1",1,"11/15/18","3/4/19"
"45",31428330,38,38,1,"PORCUPINE","11_13_BC_000046.JPG","11_13_BC_000047.JPG","11_13_BC_000048.JPG","11","13","Deciduous","BC","1",1,"11/15/18","3/4/19"
"46",31428331,39,39,2,"PORCUPINE","11_13_BC_000049.JPG","11_13_BC_000050.JPG","11_13_BC_000051.JPG","11","13","Deciduous","BC","1",1,"11/15/18","3/4/19"
"47",31428332,40,40,2,"SQUIRRELGRAY","11_13_BC_000052.JPG","11_13_BC_000053.JPG","11_13_BC_000054.JPG","11","13","Deciduous","BC","1",1,"11/15/18","3/4/19"
"48",31428333,12806,12806,1,"SQUIRRELGRAY","11_13_BC_000055.JPG","11_13_BC_000056.JPG","11_13_BC_000057.JPG","11","13","Deciduous","BC","1",1,"11/15/18","3/4/19"
"49",31428334,41,41,1,"NOTHINGHERE","11_13_BC_000058.JPG","11_13_BC_000059.JPG","11_13_BC_000060.JPG","11","13","Deciduous","BC","1",1,"11/15/18","3/4/19"
"50",31428335,42,42,1,"SQUIRRELGRAY","11_13_BC_000061.JPG","11_13_BC_000062.JPG","11_13_BC_000063.JPG","11","13","Deciduous","BC","1",1,"11/15/18","3/4/19"
"51",31428336,12805,12805,1,"SQUIRRELGRAY","11_13_BC_000064.JPG","11_13_BC_000065.JPG","11_13_BC_000066.JPG","11","13","Deciduous","BC","1",1,"11/15/18","3/4/19"
"52",31428337,43,43,1,"SQUIRRELGRAY","11_13_BC_000067.JPG","11_13_BC_000068.JPG","11_13_BC_000069.JPG","11","13","Deciduous","BC","1",1,"11/15/18","3/4/19"
"53",31428338,12804,12804,1,"PORCUPINE","11_13_BC_000070.JPG","11_13_BC_000071.JPG","11_13_BC_000072.JPG","11","13","Deciduous","BC","1",1,"11/15/18","3/4/19"
"54",31428339,44,44,1,"PORCUPINE","11_13_BC_000073.JPG","11_13_BC_000074.JPG","11_13_BC_000075.JPG","11","13","Deciduous","BC","1",1,"11/15/18","3/4/19"
"55",31428340,45,45,1,"SQUIRRELGRAY","11_13_BC_000076.JPG","11_13_BC_000077.JPG","11_13_BC_000078.JPG","11","13","Deciduous","BC","1",1,"11/15/18","3/4/19"
"56",31428341,46,46,1,"SQUIRRELGRAY","11_13_BC_000079.JPG","11_13_BC_000080.JPG","11_13_BC_000081.JPG","11","13","Deciduous","BC","1",1,"11/15/18","3/4/19"
"57",31428342,47,47,1,"PORCUPINE","11_13_BC_000082.JPG","11_13_BC_000083.JPG","11_13_BC_000084.JPG","11","13","Deciduous","BC","1",1,"11/15/18","3/4/19"
"58",31428343,48,48,1,"NOTHINGHERE","11_13_BC_000085.JPG","11_13_BC_000086.JPG","11_13_BC_000087.JPG","11","13","Deciduous","BC","1",1,"11/15/18","3/4/19"
"59",31428344,49,49,1,"SQUIRRELGRAY","11_13_BC_000088.JPG","11_13_BC_000089.JPG","11_13_BC_000090.JPG","11","13","Deciduous","BC","1",1,"11/15/18","3/4/19"
"60",31428345,50,50,1,"SQUIRRELGRAY","11_13_BC_000091.JPG","11_13_BC_000092.JPG","11_13_BC_000093.JPG","11","13","Deciduous","BC","1",1,"11/15/18","3/4/19"
"61",31428346,51,51,1,"SQUIRRELGRAY","11_13_BC_000094.JPG","11_13_BC_000095.JPG","11_13_BC_000096.JPG","11","13","Deciduous","BC","1",1,"11/15/18","3/4/19"
"62",31428347,52,52,2,"SQUIRRELGRAY","11_13_BC_000097.JPG","11_13_BC_000098.JPG","11_13_BC_000099.JPG","11","13","Deciduous","BC","1",1,"11/15/18","3/4/19"
"63",31428348,12803,12803,1,"SQUIRRELGRAY","11_13_BC_000100.JPG","11_13_BC_000101.JPG","11_13_BC_000102.JPG","11","13","Deciduous","BC","1",1,"11/15/18","3/4/19"
"64",31428349,53,53,1,"NOTHINGHERE","11_13_BC_000103.JPG","11_13_BC_000104.JPG","11_13_BC_000105.JPG","11","13","Deciduous","BC","1",1,"11/15/18","3/4/19"
"65",31428350,54,54,1,"NOTHINGHERE","11_13_BC_000106.JPG","11_13_BC_000107.JPG","11_13_BC_000108.JPG","11","13","Deciduous","BC","1",1,"11/15/18","3/4/19"
"66",31428351,55,55,1,"SQUIRRELGRAY","11_13_BC_000109.JPG","11_13_BC_000110.JPG","11_13_BC_000111.JPG","11","13","Deciduous","BC","1",1,"11/15/18","3/4/19"
"67",31428352,56,56,2,"NOTHINGHERE","11_13_BC_000112.JPG","11_13_BC_000113.JPG","11_13_BC_000114.JPG","11","13","Deciduous","BC","1",1,"11/15/18","3/4/19"
"68",31428353,57,57,1,"PORCUPINE","11_13_BC_000115.JPG","11_13_BC_000116.JPG","11_13_BC_000117.JPG","11","13","Deciduous","BC","1",1,"11/15/18","3/4/19"
"69",31428354,58,58,1,"SQUIRRELGRAY","11_13_BC_000121.JPG","11_13_BC_000122.JPG","11_13_BC_000123.JPG","11","13","Deciduous","BC","1",1,"11/15/18","3/4/19"
"70",31428355,59,59,2,"SOMETHINGHERE","11_13_BC_000124.JPG","11_13_BC_000125.JPG","11_13_BC_000126.JPG","11","13","Deciduous","BC","1",1,"11/15/18","3/4/19"
"71",31428356,60,60,1,"NOTHINGHERE","11_13_BC_000127.JPG","11_13_BC_000128.JPG","11_13_BC_000129.JPG","11","13","Deciduous","BC","1",1,"11/15/18","3/4/19"
"72",31428357,61,61,1,"SQUIRRELGRAY","11_13_BC_000130.JPG","11_13_BC_000131.JPG","11_13_BC_000132.JPG","11","13","Deciduous","BC","1",1,"11/15/18","3/4/19"
"73",31428358,62,62,1,"SQUIRRELGRAY","11_13_BC_000133.JPG","11_13_BC_000134.JPG","11_13_BC_000135.JPG","11","13","Deciduous","BC","1",1,"11/15/18","3/4/19"
"74",31428359,63,63,1,"NOTHINGHERE","11_13_BC_000136.JPG","11_13_BC_000137.JPG","11_13_BC_000138.JPG","11","13","Deciduous","BC","1",1,"11/15/18","3/4/19"
"75",31428360,64,64,1,"TURKEY","11_13_BC_000139.JPG","11_13_BC_000140.JPG","11_13_BC_000141.JPG","11","13","Deciduous","BC","1",1,"11/15/18","3/4/19"
"76",31428361,65,65,2,"TURKEY","11_13_BC_000142.JPG","11_13_BC_000143.JPG","11_13_BC_000144.JPG","11","13","Deciduous","BC","1",1,"11/15/18","3/4/19"
"77",31428362,66,66,1,"BOBCAT","11_13_BC_000145.JPG","11_13_BC_000146.JPG","11_13_BC_000147.JPG","11","13","Deciduous","BC","1",1,"11/15/18","3/4/19"
"78",31428363,67,67,1,"PORCUPINE","11_13_BC_000148.JPG","11_13_BC_000149.JPG","11_13_BC_000150.JPG","11","13","Deciduous","BC","1",1,"11/15/18","3/4/19"
"79",31428364,12802,12802,1,"PORCUPINE","11_13_BC_000151.JPG","11_13_BC_000152.JPG","11_13_BC_000153.JPG","11","13","Deciduous","BC","1",1,"11/15/18","3/4/19"
"80",31428365,68,68,1,"SQUIRRELGRAY","11_13_BC_000154.JPG","11_13_BC_000155.JPG","11_13_BC_000156.JPG","11","13","Deciduous","BC","1",1,"11/15/18","3/4/19"
"81",31428366,69,69,1,"NOTHINGHERE","11_13_BC_000157.JPG","11_13_BC_000158.JPG","11_13_BC_000159.JPG","11","13","Deciduous","BC","1",1,"11/15/18","3/4/19"
"82",31428367,70,70,1,"NOTHINGHERE","11_13_BC_000160.JPG","11_13_BC_000161.JPG","11_13_BC_000162.JPG","11","13","Deciduous","BC","1",1,"11/15/18","3/4/19"
"83",31428368,12801,12801,1,"PORCUPINE","11_13_BC_000163.JPG","11_13_BC_000164.JPG","11_13_BC_000165.JPG","11","13","Deciduous","BC","1",1,"11/15/18","3/4/19"
"84",31428369,71,71,2,"SOMETHINGHERE","11_13_BC_000166.JPG","11_13_BC_000167.JPG","11_13_BC_000168.JPG","11","13","Deciduous","BC","1",1,"11/15/18","3/4/19"
"85",31428370,12800,12800,1,"WEASEL","11_13_BC_000169.JPG","11_13_BC_000170.JPG","11_13_BC_000171.JPG","11","13","Deciduous","BC","1",1,"11/15/18","3/4/19"
"86",31428371,72,72,1,"SQUIRRELGRAY","11_13_BC_000172.JPG","11_13_BC_000173.JPG","11_13_BC_000174.JPG","11","13","Deciduous","BC","1",1,"11/15/18","3/4/19"
"87",31428372,73,73,1,"SQUIRRELGRAY","11_13_BC_000175.JPG","11_13_BC_000176.JPG","11_13_BC_000177.JPG","11","13","Deciduous","BC","1",1,"11/15/18","3/4/19"
"88",31428373,74,74,1,"GROUSERUFFED","11_13_BC_000178.JPG","11_13_BC_000179.JPG","11_13_BC_000180.JPG","11","13","Deciduous","BC","1",1,"11/15/18","3/4/19"
"89",31428374,12799,12799,1,"FISHER","11_13_BC_000181.JPG","11_13_BC_000182.JPG","11_13_BC_000183.JPG","11","13","Deciduous","BC","1",1,"11/15/18","3/4/19"
"90",31428375,75,75,1,"SQUIRRELGRAY","11_13_BC_000184.JPG","11_13_BC_000185.JPG","11_13_BC_000186.JPG","11","13","Deciduous","BC","1",1,"11/15/18","3/4/19"
"91",31428376,76,76,2,"SQUIRRELGRAY","11_13_BC_000187.JPG","11_13_BC_000188.JPG","11_13_BC_000189.JPG","11","13","Deciduous","BC","1",1,"11/15/18","3/4/19"
"92",31428377,77,77,1,"SQUIRRELGRAY","11_13_BC_000190.JPG","11_13_BC_000191.JPG","11_13_BC_000192.JPG","11","13","Deciduous","BC","1",1,"11/15/18","3/4/19"
"93",31428378,78,78,1,"NOTHINGHERE","11_13_BC_000193.JPG","11_13_BC_000194.JPG","11_13_BC_000195.JPG","11","13","Deciduous","BC","1",1,"11/15/18","3/4/19"
"94",31428379,79,79,1,"NOTHINGHERE","11_13_BC_000196.JPG","11_13_BC_000197.JPG","11_13_BC_000198.JPG","11","13","Deciduous","BC","1",1,"11/15/18","3/4/19"
"95",31428380,80,80,1,"SQUIRRELGRAY","11_13_BC_000199.JPG","11_13_BC_000200.JPG","11_13_BC_000201.JPG","11","13","Deciduous","BC","1",1,"11/15/18","3/4/19"
"96",31428381,81,81,1,"SQUIRRELGRAY","11_13_BC_000202.JPG","11_13_BC_000203.JPG","11_13_BC_000204.JPG","11","13","Deciduous","BC","1",1,"11/15/18","3/4/19"
"97",31428382,12798,12798,1,"OTHERBIRD","11_13_BC_000205.JPG","11_13_BC_000206.JPG","11_13_BC_000207.JPG","11","13","Deciduous","BC","1",1,"11/15/18","3/4/19"
"98",31428383,82,82,1,"DEERWHITETAILED","11_13_BC_000208.JPG","11_13_BC_000209.JPG","11_13_BC_000210.JPG","11","13","Deciduous","BC","1",1,"11/15/18","3/4/19"
"99",31428384,83,83,1,"DEERWHITETAILED","11_13_BC_000211.JPG","11_13_BC_000212.JPG","11_13_BC_000213.JPG","11","13","Deciduous","BC","1",1,"11/15/18","3/4/19"
"100",31428385,84,84,1,"DEERWHITETAILED","11_13_BC_000214.JPG","11_13_BC_000215.JPG","11_13_BC_000216.JPG","11","13","Deciduous","BC","1",1,"11/15/18","3/4/19"
"101",31428386,85,85,1,"DEERWHITETAILED","11_13_BC_000217.JPG","11_13_BC_000218.JPG","11_13_BC_000219.JPG","11","13","Deciduous","BC","1",1,"11/15/18","3/4/19"
"102",31428387,12797,12797,1,"DEERWHITETAILED","11_13_BC_000220.JPG","11_13_BC_000221.JPG","11_13_BC_000222.JPG","11","13","Deciduous","BC","1",1,"11/15/18","3/4/19"
"103",31428388,86,86,1,"SQUIRRELGRAY","11_13_BC_000223.JPG","11_13_BC_000224.JPG","11_13_BC_000225.JPG","11","13","Deciduous","BC","1",1,"11/15/18","3/4/19"
"104",31428389,87,87,1,"NOTHINGHERE","11_13_BC_000226.JPG","11_13_BC_000227.JPG","11_13_BC_000228.JPG","11","13","Deciduous","BC","1",1,"11/15/18","3/4/19"
"105",31428390,88,88,2,"NOTHINGHERE","11_13_BC_000229.JPG","11_13_BC_000230.JPG","11_13_BC_000231.JPG","11","13","Deciduous","BC","1",1,"11/15/18","3/4/19"
"106",31428391,89,89,2,"OTHERSMALLMAMMAL","11_13_BC_000232.JPG","11_13_BC_000233.JPG","11_13_BC_000234.JPG","11","13","Deciduous","BC","1",1,"11/15/18","3/4/19"
"107",31428392,90,90,2,"SOMETHINGHERE","11_13_BC_000235.JPG","11_13_BC_000236.JPG","11_13_BC_000237.JPG","11","13","Deciduous","BC","1",1,"11/15/18","3/4/19"
"108",31428393,91,91,2,"TURKEY","11_13_BC_000238.JPG","11_13_BC_000239.JPG","11_13_BC_000240.JPG","11","13","Deciduous","BC","1",1,"11/15/18","3/4/19"
"109",31428394,92,92,1,"SQUIRRELGRAY","11_13_BC_000241.JPG","11_13_BC_000242.JPG","11_13_BC_000243.JPG","11","13","Deciduous","BC","1",1,"11/15/18","3/4/19"
"110",31428395,93,93,1,"NOTHINGHERE","11_13_BC_000244.JPG","11_13_BC_000245.JPG","11_13_BC_000246.JPG","11","13","Deciduous","BC","1",1,"11/15/18","3/4/19"
"111",31428396,94,94,1,"NOTHINGHERE","11_13_BC_000247.JPG","11_13_BC_000248.JPG","11_13_BC_000249.JPG","11","13","Deciduous","BC","1",1,"11/15/18","3/4/19"
"112",31428397,95,95,1,"SQUIRRELGRAY","11_13_BC_000250.JPG","11_13_BC_000251.JPG","11_13_BC_000252.JPG","11","13","Deciduous","BC","1",1,"11/15/18","3/4/19"
"113",31428398,96,96,2,"SQUIRRELGRAY","11_13_BC_000253.JPG","11_13_BC_000254.JPG","11_13_BC_000255.JPG","11","13","Deciduous","BC","1",1,"11/15/18","3/4/19"
"114",31428399,97,97,1,"SQUIRRELGRAY","11_13_BC_000256.JPG","11_13_BC_000257.JPG","11_13_BC_000258.JPG","11","13","Deciduous","BC","1",1,"11/15/18","3/4/19"
"115",31428400,98,98,1,"SQUIRRELGRAY","11_13_BC_000259.JPG","11_13_BC_000260.JPG","11_13_BC_000261.JPG","11","13","Deciduous","BC","1",1,"11/15/18","3/4/19"
"116",31428401,99,99,1,"NOTHINGHERE","11_13_BC_000262.JPG","11_13_BC_000263.JPG","11_13_BC_000264.JPG","11","13","Deciduous","BC","1",1,"11/15/18","3/4/19"
"117",31428402,100,100,1,"NOTHINGHERE","11_13_BC_000265.JPG","11_13_BC_000266.JPG","11_13_BC_000267.JPG","11","13","Deciduous","BC","1",1,"11/15/18","3/4/19"
"118",31428403,101,101,1,"NOTHINGHERE","11_13_BC_000268.JPG","11_13_BC_000269.JPG","11_13_BC_000270.JPG","11","13","Deciduous","BC","1",1,"11/15/18","3/4/19"
"119",31428404,102,102,1,"NOTHINGHERE","11_13_BC_000271.JPG","11_13_BC_000272.JPG","11_13_BC_000273.JPG","11","13","Deciduous","BC","1",1,"11/15/18","3/4/19"
"120",31428405,103,103,1,"NOTHINGHERE","11_13_BC_000274.JPG","11_13_BC_000275.JPG","11_13_BC_000276.JPG","11","13","Deciduous","BC","1",1,"11/15/18","3/4/19"
"121",31428406,104,104,1,"NOTHINGHERE","11_13_BC_000277.JPG","11_13_BC_000278.JPG","11_13_BC_000279.JPG","11","13","Deciduous","BC","1",1,"11/15/18","3/4/19"
"122",31428407,105,105,1,"NOTHINGHERE","11_13_BC_000280.JPG","11_13_BC_000281.JPG","11_13_BC_000282.JPG","11","13","Deciduous","BC","1",1,"11/15/18","3/4/19"
"123",31428408,106,106,1,"NOTHINGHERE","11_13_BC_000283.JPG","11_13_BC_000284.JPG","11_13_BC_000285.JPG","11","13","Deciduous","BC","1",1,"11/15/18","3/4/19"
"124",31428409,107,107,2,"SOMETHINGHERE","14_22_DON_000001.JPG","14_22_DON_000002.JPG","14_22_DON_000003.JPG","14","22","Deciduous","DON","1",1,"12/13/18","2/25/19"
"125",31428410,12796,12796,1,"DEERWHITETAILED","14_22_DON_000004.JPG","14_22_DON_000005.JPG","14_22_DON_000006.JPG","14","22","Deciduous","DON","1",1,"12/13/18","2/25/19"
"126",31428411,108,108,1,"NOTHINGHERE","14_22_DON_000007.JPG","14_22_DON_000008.JPG","14_22_DON_000009.JPG","14","22","Deciduous","DON","1",1,"12/13/18","2/25/19"
"127",31428412,109,109,1,"NOTHINGHERE","14_22_DON_000010.JPG","14_22_DON_000011.JPG","14_22_DON_000012.JPG","14","22","Deciduous","DON","1",1,"12/13/18","2/25/19"
"128",31428413,110,110,1,"RACCOON","14_22_DON_000013.JPG","14_22_DON_000014.JPG","14_22_DON_000015.JPG","14","22","Deciduous","DON","1",1,"12/13/18","2/25/19"
"129",31428414,111,111,2,"DEERWHITETAILED","14_22_DON_000016.JPG","14_22_DON_000017.JPG","14_22_DON_000018.JPG","14","22","Deciduous","DON","1",1,"12/13/18","2/25/19"
"130",31428415,112,112,1,"DEERWHITETAILED","14_22_DON_000019.JPG","14_22_DON_000020.JPG","14_22_DON_000021.JPG","14","22","Deciduous","DON","1",1,"12/13/18","2/25/19"
"131",31428416,113,113,1,"NOTHINGHERE","14_22_DON_000022.JPG","14_22_DON_000023.JPG","14_22_DON_000024.JPG","14","22","Deciduous","DON","1",1,"12/13/18","2/25/19"
"132",31428417,114,114,1,"DEERWHITETAILED","14_22_DON_000025.JPG","14_22_DON_000026.JPG","14_22_DON_000027.JPG","14","22","Deciduous","DON","1",1,"12/13/18","2/25/19"
"133",31428418,115,115,1,"DEERWHITETAILED","14_22_DON_000028.JPG","14_22_DON_000029.JPG","14_22_DON_000030.JPG","14","22","Deciduous","DON","1",1,"12/13/18","2/25/19"
"134",31428419,116,116,1,"DEERWHITETAILED","14_22_DON_000031.JPG","14_22_DON_000032.JPG","14_22_DON_000033.JPG","14","22","Deciduous","DON","1",1,"12/13/18","2/25/19"
"135",31428420,117,117,1,"DEERWHITETAILED","14_22_DON_000034.JPG","14_22_DON_000035.JPG","14_22_DON_000036.JPG","14","22","Deciduous","DON","1",1,"12/13/18","2/25/19"
"136",31428421,118,118,1,"DEERWHITETAILED","14_22_DON_000037.JPG","14_22_DON_000038.JPG","14_22_DON_000039.JPG","14","22","Deciduous","DON","1",1,"12/13/18","2/25/19"
"137",31428422,119,119,1,"DEERWHITETAILED","14_22_DON_000040.JPG","14_22_DON_000041.JPG","14_22_DON_000042.JPG","14","22","Deciduous","DON","1",1,"12/13/18","2/25/19"
"138",31428423,120,120,1,"NOTHINGHERE","14_22_DON_000043.JPG","14_22_DON_000044.JPG","14_22_DON_000045.JPG","14","22","Deciduous","DON","1",1,"12/13/18","2/25/19"
"139",31428424,121,121,1,"DEERWHITETAILED","14_22_DON_000046.JPG","14_22_DON_000047.JPG","14_22_DON_000048.JPG","14","22","Deciduous","DON","1",1,"12/13/18","2/25/19"
"140",31428425,122,122,1,"DEERWHITETAILED","14_22_DON_000049.JPG","14_22_DON_000050.JPG","14_22_DON_000051.JPG","14","22","Deciduous","DON","1",1,"12/13/18","2/25/19"
"141",31428426,123,123,1,"DEERWHITETAILED","14_22_DON_000052.JPG","14_22_DON_000053.JPG","14_22_DON_000054.JPG","14","22","Deciduous","DON","1",1,"12/13/18","2/25/19"
"142",31428427,124,124,1,"DEERWHITETAILED","14_22_DON_000055.JPG","14_22_DON_000056.JPG","14_22_DON_000057.JPG","14","22","Deciduous","DON","1",1,"12/13/18","2/25/19"
"143",31428428,125,125,1,"DEERWHITETAILED","14_22_DON_000058.JPG","14_22_DON_000059.JPG","14_22_DON_000060.JPG","14","22","Deciduous","DON","1",1,"12/13/18","2/25/19"
"144",31428429,126,126,1,"DEERWHITETAILED","14_22_DON_000061.JPG","14_22_DON_000062.JPG","14_22_DON_000063.JPG","14","22","Deciduous","DON","1",1,"12/13/18","2/25/19"
"145",31428430,12795,12795,1,"PORCUPINE","14_22_DON_000064.JPG","14_22_DON_000065.JPG","14_22_DON_000066.JPG","14","22","Deciduous","DON","1",1,"12/13/18","2/25/19"
"146",31428431,127,127,1,"DEERWHITETAILED","14_22_DON_000067.JPG","14_22_DON_000068.JPG","14_22_DON_000069.JPG","14","22","Deciduous","DON","1",1,"12/13/18","2/25/19"
"147",31428432,128,128,1,"RACCOON","14_22_DON_000070.JPG","14_22_DON_000071.JPG","14_22_DON_000072.JPG","14","22","Deciduous","DON","1",1,"12/13/18","2/25/19"
"148",31428433,12794,12794,1,"DEERWHITETAILED","14_22_DON_000073.JPG","14_22_DON_000074.JPG","14_22_DON_000075.JPG","14","22","Deciduous","DON","1",1,"12/13/18","2/25/19"
"149",31428434,129,129,1,"NOTHINGHERE","14_22_DON_000076.JPG","14_22_DON_000077.JPG","14_22_DON_000078.JPG","14","22","Deciduous","DON","1",1,"12/13/18","2/25/19"
"150",31428435,130,130,1,"NOTHINGHERE","14_22_DON_000079.JPG","14_22_DON_000080.JPG","14_22_DON_000081.JPG","14","22","Deciduous","DON","1",1,"12/13/18","2/25/19"
"151",31428436,131,131,1,"NOTHINGHERE","14_22_DON_000082.JPG","14_22_DON_000083.JPG","14_22_DON_000084.JPG","14","22","Deciduous","DON","1",1,"12/13/18","2/25/19"
"152",31428437,132,132,1,"COYOTE","14_22_DON_000085.JPG","14_22_DON_000086.JPG","14_22_DON_000087.JPG","14","22","Deciduous","DON","1",1,"12/13/18","2/25/19"
"153",31428438,133,133,1,"DEERWHITETAILED","14_22_DON_000088.JPG","14_22_DON_000089.JPG","14_22_DON_000090.JPG","14","22","Deciduous","DON","1",1,"12/13/18","2/25/19"
"154",31428439,134,134,1,"NOTHINGHERE","14_22_DON_000091.JPG","14_22_DON_000092.JPG","14_22_DON_000093.JPG","14","22","Deciduous","DON","1",1,"12/13/18","2/25/19"
"155",31428440,135,135,1,"DEERWHITETAILED","14_22_DON_000094.JPG","14_22_DON_000095.JPG","14_22_DON_000096.JPG","14","22","Deciduous","DON","1",1,"12/13/18","2/25/19"
"156",31428441,136,136,1,"DEERWHITETAILED","14_22_DON_000097.JPG","14_22_DON_000098.JPG","14_22_DON_000099.JPG","14","22","Deciduous","DON","1",1,"12/13/18","2/25/19"
"157",31428442,12793,12793,1,"FOXRED","14_22_DON_000100.JPG","14_22_DON_000101.JPG","14_22_DON_000102.JPG","14","22","Deciduous","DON","1",1,"12/13/18","2/25/19"
"158",31428443,137,137,1,"NOTHINGHERE","14_22_DON_000103.JPG","14_22_DON_000104.JPG","14_22_DON_000105.JPG","14","22","Deciduous","DON","1",1,"12/13/18","2/25/19"
"159",31428444,138,138,1,"DEERWHITETAILED","14_22_DON_000106.JPG","14_22_DON_000107.JPG","14_22_DON_000108.JPG","14","22","Deciduous","DON","1",1,"12/13/18","2/25/19"
"160",31428445,139,139,1,"GROUSERUFFED","14_22_DON_000109.JPG","14_22_DON_000110.JPG","14_22_DON_000111.JPG","14","22","Deciduous","DON","1",1,"12/13/18","2/25/19"
"161",31428446,12792,12792,1,"FOXRED","14_22_DON_000112.JPG","14_22_DON_000113.JPG","14_22_DON_000114.JPG","14","22","Deciduous","DON","1",1,"12/13/18","2/25/19"
"162",31428447,140,140,1,"NOTHINGHERE","14_22_DON_000115.JPG","14_22_DON_000116.JPG","14_22_DON_000117.JPG","14","22","Deciduous","DON","1",1,"12/13/18","2/25/19"
"163",31428448,12791,12791,1,"DEERWHITETAILED","14_22_DON_000118.JPG","14_22_DON_000119.JPG","14_22_DON_000120.JPG","14","22","Deciduous","DON","1",1,"12/13/18","2/25/19"
"164",31428449,141,141,1,"HUMAN","14_22_DON_000121.JPG","14_22_DON_000122.JPG","14_22_DON_000123.JPG","14","22","Deciduous","DON","1",1,"12/13/18","2/25/19"
"165",31428450,142,142,1,"DEERWHITETAILED","15_14_DEG_000002.JPG","15_14_DEG_000003.JPG","15_14_DEG_000001.JPG","15","14","Pine","DEG","1",1,"11/26/18","2/7/19"
"166",31428451,143,143,1,"DEERWHITETAILED","15_14_DEG_000004.JPG","15_14_DEG_000005.JPG","15_14_DEG_000006.JPG","15","14","Pine","DEG","1",1,"11/26/18","2/7/19"
"167",31428452,144,144,1,"DEERWHITETAILED","15_14_DEG_000007.JPG","15_14_DEG_000008.JPG","15_14_DEG_000009.JPG","15","14","Pine","DEG","1",1,"11/26/18","2/7/19"
"168",31428453,145,145,1,"DEERWHITETAILED","15_14_DEG_000010.JPG","15_14_DEG_000011.JPG","15_14_DEG_000012.JPG","15","14","Pine","DEG","1",1,"11/26/18","2/7/19"
"169",31428454,146,146,1,"HUMAN","15_14_DEG_000013.JPG","15_14_DEG_000014.JPG","15_14_DEG_000015.JPG","15","14","Pine","DEG","1",1,"11/26/18","2/7/19"
"170",31428455,147,147,1,"DEERWHITETAILED","15_14_DEG_000016.JPG","15_14_DEG_000017.JPG","15_14_DEG_000018.JPG","15","14","Pine","DEG","1",1,"11/26/18","2/7/19"
"171",31428456,148,148,1,"HUMAN","15_14_DEG_000019.JPG","15_14_DEG_000020.JPG","15_14_DEG_000021.JPG","15","14","Pine","DEG","1",1,"11/26/18","2/7/19"
"172",31428457,149,149,1,"DEERWHITETAILED","15_14_DEG_000022.JPG","15_14_DEG_000023.JPG","15_14_DEG_000024.JPG","15","14","Pine","DEG","1",1,"11/26/18","2/7/19"
"173",31428458,150,150,1,"DEERWHITETAILED","15_14_DEG_000025.JPG","15_14_DEG_000026.JPG","15_14_DEG_000027.JPG","15","14","Pine","DEG","1",1,"11/26/18","2/7/19"
"174",31428459,151,151,1,"NOTHINGHERE","15_14_DEG_000028.JPG","15_14_DEG_000029.JPG","15_14_DEG_000030.JPG","15","14","Pine","DEG","1",1,"11/26/18","2/7/19"
"175",31428460,152,152,2,"COYOTE","15_14_DEG_000031.JPG","15_14_DEG_000032.JPG","15_14_DEG_000033.JPG","15","14","Pine","DEG","1",1,"11/26/18","2/7/19"
"176",31428461,153,153,1,"DEERWHITETAILED","15_14_DEG_000034.JPG","15_14_DEG_000035.JPG","15_14_DEG_000036.JPG","15","14","Pine","DEG","1",1,"11/26/18","2/7/19"
"177",31428462,154,154,1,"DEERWHITETAILED","15_14_DEG_000037.JPG","15_14_DEG_000038.JPG","15_14_DEG_000039.JPG","15","14","Pine","DEG","1",1,"11/26/18","2/7/19"
"178",31428463,155,155,1,"DEERWHITETAILED","15_14_DEG_000040.JPG","15_14_DEG_000041.JPG","15_14_DEG_000042.JPG","15","14","Pine","DEG","1",1,"11/26/18","2/7/19"
"179",31428464,156,156,1,"DEERWHITETAILED","15_14_DEG_000043.JPG","15_14_DEG_000044.JPG",NA,"15","14","Pine","DEG","1",1,"11/26/18","2/7/19"
"180",31428465,12790,12790,1,"DEERWHITETAILED","15_14_DEG_000046.JPG","15_14_DEG_000047.JPG","15_14_DEG_000048.JPG","15","14","Pine","DEG","1",1,"11/26/18","2/7/19"
"181",31428466,157,157,1,"DEERWHITETAILED","15_14_DEG_000049.JPG","15_14_DEG_000050.JPG","15_14_DEG_000051.JPG","15","14","Pine","DEG","1",1,"11/26/18","2/7/19"
"182",31428467,12789,12789,1,"SOMETHINGHERE","15_14_DEG_000052.JPG","15_14_DEG_000053.JPG","15_14_DEG_000054.JPG","15","14","Pine","DEG","1",1,"11/26/18","2/7/19"
"183",31428468,12788,12788,1,"DEERWHITETAILED","15_14_DEG_000055.JPG","15_14_DEG_000056.JPG","15_14_DEG_000057.JPG","15","14","Pine","DEG","1",1,"11/26/18","2/7/19"
"184",31428469,158,158,1,"DEERWHITETAILED","15_14_DEG_000058.JPG","15_14_DEG_000059.JPG","15_14_DEG_000060.JPG","15","14","Pine","DEG","1",1,"11/26/18","2/7/19"
"185",31428470,159,159,1,"DEERWHITETAILED","15_14_DEG_000061.JPG","15_14_DEG_000062.JPG","15_14_DEG_000063.JPG","15","14","Pine","DEG","1",1,"11/26/18","2/7/19"
"186",31428471,160,160,1,"DEERWHITETAILED","15_14_DEG_000064.JPG","15_14_DEG_000065.JPG","15_14_DEG_000066.JPG","15","14","Pine","DEG","1",1,"11/26/18","2/7/19"
"187",31428472,161,161,1,"DEERWHITETAILED","15_14_DEG_000067.JPG","15_14_DEG_000068.JPG","15_14_DEG_000069.JPG","15","14","Pine","DEG","1",1,"11/26/18","2/7/19"
"188",31428473,162,162,1,"NOTHINGHERE","15_14_DEG_000070.JPG","15_14_DEG_000071.JPG","15_14_DEG_000072.JPG","15","14","Pine","DEG","1",1,"11/26/18","2/7/19"
"189",31428474,163,163,1,"DEERWHITETAILED","15_14_DEG_000073.JPG","15_14_DEG_000074.JPG","15_14_DEG_000075.JPG","15","14","Pine","DEG","1",1,"11/26/18","2/7/19"
"190",31428475,164,164,1,"DEERWHITETAILED","15_14_DEG_000076.JPG","15_14_DEG_000077.JPG","15_14_DEG_000078.JPG","15","14","Pine","DEG","1",1,"11/26/18","2/7/19"
"191",31428476,165,165,1,"DEERWHITETAILED","15_14_DEG_000079.JPG","15_14_DEG_000080.JPG","15_14_DEG_000081.JPG","15","14","Pine","DEG","1",1,"11/26/18","2/7/19"
"192",31428477,166,166,1,"DEERWHITETAILED","15_14_DEG_000082.JPG","15_14_DEG_000083.JPG","15_14_DEG_000084.JPG","15","14","Pine","DEG","1",1,"11/26/18","2/7/19"
"193",31428478,167,167,2,"DEERWHITETAILED","15_14_DEG_000085.JPG","15_14_DEG_000086.JPG","15_14_DEG_000087.JPG","15","14","Pine","DEG","1",1,"11/26/18","2/7/19"
"194",31428479,168,168,1,"DEERWHITETAILED","15_14_DEG_000088.JPG","15_14_DEG_000089.JPG","15_14_DEG_000090.JPG","15","14","Pine","DEG","1",1,"11/26/18","2/7/19"
"195",31428480,169,169,1,"DEERWHITETAILED","15_14_DEG_000091.JPG","15_14_DEG_000092.JPG","15_14_DEG_000093.JPG","15","14","Pine","DEG","1",1,"11/26/18","2/7/19"
"196",31428481,170,170,1,"DEERWHITETAILED","15_14_DEG_000094.JPG","15_14_DEG_000095.JPG","15_14_DEG_000096.JPG","15","14","Pine","DEG","1",1,"11/26/18","2/7/19"
"197",31428482,171,171,1,"DEERWHITETAILED","15_14_DEG_000097.JPG","15_14_DEG_000098.JPG","15_14_DEG_000099.JPG","15","14","Pine","DEG","1",1,"11/26/18","2/7/19"
"198",31428483,172,172,1,"DEERWHITETAILED","15_14_DEG_000100.JPG","15_14_DEG_000101.JPG","15_14_DEG_000102.JPG","15","14","Pine","DEG","1",1,"11/26/18","2/7/19"
"199",31428484,173,173,1,"DEERWHITETAILED","15_14_DEG_000103.JPG","15_14_DEG_000104.JPG","15_14_DEG_000105.JPG","15","14","Pine","DEG","1",1,"11/26/18","2/7/19"
"200",31428485,174,174,1,"COYOTE","15_14_DEG_000106.JPG","15_14_DEG_000107.JPG",NA,"15","14","Pine","DEG","1",1,"11/26/18","2/7/19"
"201",31428486,175,175,1,"DEERWHITETAILED","15_14_DEG_000109.JPG","15_14_DEG_000110.JPG","15_14_DEG_000111.JPG","15","14","Pine","DEG","1",1,"11/26/18","2/7/19"
"202",31428487,176,176,1,"DEERWHITETAILED","15_14_DEG_000112.JPG","15_14_DEG_000113.JPG","15_14_DEG_000114.JPG","15","14","Pine","DEG","1",1,"11/26/18","2/7/19"
"203",31428488,12787,12787,1,"DEERWHITETAILED","15_14_DEG_000118.JPG","15_14_DEG_000119.JPG","15_14_DEG_000120.JPG","15","14","Pine","DEG","1",1,"11/26/18","2/7/19"
"204",31428489,177,177,1,"DEERWHITETAILED","15_14_DEG_000121.JPG","15_14_DEG_000122.JPG","15_14_DEG_000123.JPG","15","14","Pine","DEG","1",1,"11/26/18","2/7/19"
"205",31428490,178,178,2,"DEERWHITETAILED","15_14_DEG_000124.JPG","15_14_DEG_000125.JPG","15_14_DEG_000126.JPG","15","14","Pine","DEG","1",1,"11/26/18","2/7/19"
"206",31428491,179,179,1,"TURKEY","15_14_DEG_000127.JPG","15_14_DEG_000128.JPG","15_14_DEG_000129.JPG","15","14","Pine","DEG","1",1,"11/26/18","2/7/19"
"207",31428492,180,180,1,"SOMETHINGHERE","15_14_DEG_000130.JPG","15_14_DEG_000131.JPG","15_14_DEG_000132.JPG","15","14","Pine","DEG","1",1,"11/26/18","2/7/19"
"208",31428493,181,181,1,"DEERWHITETAILED","15_14_DEG_000133.JPG","15_14_DEG_000134.JPG","15_14_DEG_000135.JPG","15","14","Pine","DEG","1",1,"11/26/18","2/7/19"
"209",31428494,182,182,1,"DEERWHITETAILED","15_14_DEG_000139.JPG","15_14_DEG_000140.JPG","15_14_DEG_000141.JPG","15","14","Pine","DEG","1",1,"11/26/18","2/7/19"
"210",31428495,183,183,1,"DEERWHITETAILED","15_14_DEG_000142.JPG","15_14_DEG_000143.JPG","15_14_DEG_000144.JPG","15","14","Pine","DEG","1",1,"11/26/18","2/7/19"
"211",31428496,184,184,1,"DEERWHITETAILED","15_14_DEG_000145.JPG","15_14_DEG_000146.JPG","15_14_DEG_000147.JPG","15","14","Pine","DEG","1",1,"11/26/18","2/7/19"
"212",31428497,185,185,1,"NOTHINGHERE","15_14_DEG_000148.JPG","15_14_DEG_000149.JPG","15_14_DEG_000150.JPG","15","14","Pine","DEG","1",1,"11/26/18","2/7/19"
"213",31428498,186,186,1,"DEERWHITETAILED","15_14_DEG_000151.JPG","15_14_DEG_000152.JPG","15_14_DEG_000153.JPG","15","14","Pine","DEG","1",1,"11/26/18","2/7/19"
"214",31428499,12786,12786,1,"SOMETHINGHERE","15_14_DEG_000154.JPG","15_14_DEG_000155.JPG","15_14_DEG_000156.JPG","15","14","Pine","DEG","1",1,"11/26/18","2/7/19"
"215",31428500,187,187,1,"DEERWHITETAILED","15_14_DEG_000157.JPG","15_14_DEG_000158.JPG","15_14_DEG_000159.JPG","15","14","Pine","DEG","1",1,"11/26/18","2/7/19"
"216",31428501,188,188,1,"DEERWHITETAILED","15_14_DEG_000160.JPG","15_14_DEG_000161.JPG","15_14_DEG_000162.JPG","15","14","Pine","DEG","1",1,"11/26/18","2/7/19"
"217",31428502,189,189,1,"DEERWHITETAILED","15_14_DEG_000163.JPG","15_14_DEG_000164.JPG","15_14_DEG_000165.JPG","15","14","Pine","DEG","1",1,"11/26/18","2/7/19"
"218",31428503,190,190,1,"NOTHINGHERE","15_14_DEG_000166.JPG","15_14_DEG_000167.JPG","15_14_DEG_000168.JPG","15","14","Pine","DEG","1",1,"11/26/18","2/7/19"
"219",31428504,191,191,1,"DEERWHITETAILED","15_14_DEG_000169.JPG","15_14_DEG_000170.JPG","15_14_DEG_000171.JPG","15","14","Pine","DEG","1",1,"11/26/18","2/7/19"
"220",31428505,192,192,1,"DEERWHITETAILED","15_14_DEG_000172.JPG","15_14_DEG_000173.JPG","15_14_DEG_000174.JPG","15","14","Pine","DEG","1",1,"11/26/18","2/7/19"
"221",31428506,193,193,1,"DEERWHITETAILED","15_14_DEG_000175.JPG","15_14_DEG_000176.JPG","15_14_DEG_000177.JPG","15","14","Pine","DEG","1",1,"11/26/18","2/7/19"
"222",31428507,194,194,1,"DEERWHITETAILED","15_14_DEG_000178.JPG","15_14_DEG_000179.JPG","15_14_DEG_000180.JPG","15","14","Pine","DEG","1",1,"11/26/18","2/7/19"
"223",31428508,195,195,1,"DEERWHITETAILED","15_14_DEG_000181.JPG","15_14_DEG_000182.JPG","15_14_DEG_000183.JPG","15","14","Pine","DEG","1",1,"11/26/18","2/7/19"
"224",31428509,196,196,1,"DEERWHITETAILED","15_14_DEG_000184.JPG","15_14_DEG_000185.JPG","15_14_DEG_000186.JPG","15","14","Pine","DEG","1",1,"11/26/18","2/7/19"
"225",31428510,197,197,1,"DEERWHITETAILED","15_14_DEG_000187.JPG","15_14_DEG_000188.JPG","15_14_DEG_000189.JPG","15","14","Pine","DEG","1",1,"11/26/18","2/7/19"
"226",31428511,198,198,1,"DEERWHITETAILED","15_14_DEG_000190.JPG","15_14_DEG_000191.JPG","15_14_DEG_000192.JPG","15","14","Pine","DEG","1",1,"11/26/18","2/7/19"
"227",31428512,199,199,1,"DEERWHITETAILED","15_14_DEG_000193.JPG","15_14_DEG_000194.JPG","15_14_DEG_000195.JPG","15","14","Pine","DEG","1",1,"11/26/18","2/7/19"
"228",31428513,200,200,1,"SOMETHINGHERE","15_14_DEG_000196.JPG","15_14_DEG_000197.JPG","15_14_DEG_000198.JPG","15","14","Pine","DEG","1",1,"11/26/18","2/7/19"
"229",31428514,201,201,1,"DEERWHITETAILED","15_14_DEG_000199.JPG","15_14_DEG_000200.JPG","15_14_DEG_000201.JPG","15","14","Pine","DEG","1",1,"11/26/18","2/7/19"
"230",31428515,202,202,1,"DEERWHITETAILED","15_14_DEG_000202.JPG","15_14_DEG_000203.JPG","15_14_DEG_000204.JPG","15","14","Pine","DEG","1",1,"11/26/18","2/7/19"
"231",31428516,203,203,1,"NOTHINGHERE","15_14_DEG_000205.JPG","15_14_DEG_000206.JPG","15_14_DEG_000207.JPG","15","14","Pine","DEG","1",1,"11/26/18","2/7/19"
"232",31428517,204,204,1,"DEERWHITETAILED","15_14_DEG_000208.JPG","15_14_DEG_000209.JPG","15_14_DEG_000210.JPG","15","14","Pine","DEG","1",1,"11/26/18","2/7/19"
"233",31428518,205,205,1,"NOTHINGHERE","15_14_DEG_000211.JPG","15_14_DEG_000212.JPG","15_14_DEG_000213.JPG","15","14","Pine","DEG","1",1,"11/26/18","2/7/19"
"234",31428519,206,206,1,"DEERWHITETAILED","15_14_DEG_000214.JPG","15_14_DEG_000215.JPG","15_14_DEG_000216.JPG","15","14","Pine","DEG","1",1,"11/26/18","2/7/19"
"235",31428520,207,207,2,"DEERWHITETAILED","15_14_DEG_000217.JPG","15_14_DEG_000218.JPG","15_14_DEG_000219.JPG","15","14","Pine","DEG","1",1,"11/26/18","2/7/19"
"236",31428521,208,208,1,"DEERWHITETAILED","15_14_DEG_000220.JPG","15_14_DEG_000221.JPG","15_14_DEG_000222.JPG","15","14","Pine","DEG","1",1,"11/26/18","2/7/19"
"237",31428522,209,209,1,"DEERWHITETAILED","15_14_DEG_000223.JPG","15_14_DEG_000224.JPG","15_14_DEG_000225.JPG","15","14","Pine","DEG","1",1,"11/26/18","2/7/19"
"238",31428523,210,210,2,"DEERWHITETAILED","15_14_DEG_000226.JPG","15_14_DEG_000227.JPG","15_14_DEG_000228.JPG","15","14","Pine","DEG","1",1,"11/26/18","2/7/19"
"239",31428524,211,211,1,"DEERWHITETAILED","15_14_DEG_000229.JPG","15_14_DEG_000230.JPG","15_14_DEG_000231.JPG","15","14","Pine","DEG","1",1,"11/26/18","2/7/19"
"240",31428525,212,212,1,"DEERWHITETAILED","15_14_DEG_000232.JPG","15_14_DEG_000233.JPG","15_14_DEG_000234.JPG","15","14","Pine","DEG","1",1,"11/26/18","2/7/19"
"241",31428526,213,213,1,"DEERWHITETAILED","15_14_DEG_000235.JPG","15_14_DEG_000236.JPG","15_14_DEG_000237.JPG","15","14","Pine","DEG","1",1,"11/26/18","2/7/19"
"242",31428527,214,214,1,"DEERWHITETAILED","15_14_DEG_000238.JPG","15_14_DEG_000239.JPG","15_14_DEG_000240.JPG","15","14","Pine","DEG","1",1,"11/26/18","2/7/19"
"243",31428528,215,215,1,"DEERWHITETAILED","15_14_DEG_000241.JPG","15_14_DEG_000242.JPG","15_14_DEG_000243.JPG","15","14","Pine","DEG","1",1,"11/26/18","2/7/19"
"244",31428529,216,216,1,"DEERWHITETAILED","17_24_BC_000001.JPG","17_24_BC_000002.JPG","17_24_BC_000003.JPG","17","24","Deciduous","BC","1",1,"11/15/18","3/4/19"
"245",31428530,217,217,1,"DEERWHITETAILED","17_24_BC_000004.JPG","17_24_BC_000005.JPG","17_24_BC_000006.JPG","17","24","Deciduous","BC","1",1,"11/15/18","3/4/19"
"246",31428531,218,218,1,"DEERWHITETAILED","17_24_BC_000007.JPG","17_24_BC_000008.JPG","17_24_BC_000009.JPG","17","24","Deciduous","BC","1",1,"11/15/18","3/4/19"
"247",31428532,219,219,1,"DEERWHITETAILED","17_24_BC_000010.JPG","17_24_BC_000011.JPG","17_24_BC_000012.JPG","17","24","Deciduous","BC","1",1,"11/15/18","3/4/19"
"248",31428533,220,220,1,"DEERWHITETAILED","17_24_BC_000013.JPG","17_24_BC_000014.JPG","17_24_BC_000015.JPG","17","24","Deciduous","BC","1",1,"11/15/18","3/4/19"
"249",31428534,221,221,1,"DEERWHITETAILED","17_24_BC_000016.JPG","17_24_BC_000017.JPG","17_24_BC_000018.JPG","17","24","Deciduous","BC","1",1,"11/15/18","3/4/19"
"250",31428535,222,222,1,"DEERWHITETAILED","17_24_BC_000019.JPG","17_24_BC_000020.JPG","17_24_BC_000021.JPG","17","24","Deciduous","BC","1",1,"11/15/18","3/4/19"
"251",31428536,223,223,1,"NOTHINGHERE","17_24_BC_000022.JPG","17_24_BC_000023.JPG","17_24_BC_000024.JPG","17","24","Deciduous","BC","1",1,"11/15/18","3/4/19"
"252",31428537,224,224,1,"DEERWHITETAILED","17_24_BC_000025.JPG","17_24_BC_000026.JPG","17_24_BC_000027.JPG","17","24","Deciduous","BC","1",1,"11/15/18","3/4/19"
"253",31428538,225,225,1,"SQUIRRELGRAY","17_24_BC_000028.JPG","17_24_BC_000029.JPG","17_24_BC_000030.JPG","17","24","Deciduous","BC","1",1,"11/15/18","3/4/19"
"254",31428539,226,226,1,"SQUIRRELGRAY","17_24_BC_000031.JPG","17_24_BC_000032.JPG","17_24_BC_000033.JPG","17","24","Deciduous","BC","1",1,"11/15/18","3/4/19"
"255",31428540,227,227,1,"SQUIRRELGRAY","17_24_BC_000034.JPG","17_24_BC_000035.JPG","17_24_BC_000036.JPG","17","24","Deciduous","BC","1",1,"11/15/18","3/4/19"
"256",31428541,228,228,1,"SQUIRRELGRAY","17_24_BC_000037.JPG","17_24_BC_000038.JPG","17_24_BC_000039.JPG","17","24","Deciduous","BC","1",1,"11/15/18","3/4/19"
"257",31428542,229,229,1,"DEERWHITETAILED","17_24_BC_000040.JPG","17_24_BC_000041.JPG","17_24_BC_000042.JPG","17","24","Deciduous","BC","1",1,"11/15/18","3/4/19"
"258",31428543,230,230,1,"DEERWHITETAILED","17_24_BC_000043.JPG","17_24_BC_000044.JPG","17_24_BC_000045.JPG","17","24","Deciduous","BC","1",1,"11/15/18","3/4/19"
"259",31428544,231,231,1,"DEERWHITETAILED","17_24_BC_000046.JPG","17_24_BC_000047.JPG","17_24_BC_000048.JPG","17","24","Deciduous","BC","1",1,"11/15/18","3/4/19"
"260",31428545,232,232,1,"NOTHINGHERE","17_24_BC_000049.JPG","17_24_BC_000050.JPG","17_24_BC_000051.JPG","17","24","Deciduous","BC","1",1,"11/15/18","3/4/19"
"261",31428546,233,233,1,"SOMETHINGHERE","17_24_BC_000052.JPG","17_24_BC_000053.JPG","17_24_BC_000054.JPG","17","24","Deciduous","BC","1",1,"11/15/18","3/4/19"
"262",31428547,12785,12785,1,"SQUIRRELGRAY","17_24_BC_000055.JPG","17_24_BC_000056.JPG","17_24_BC_000057.JPG","17","24","Deciduous","BC","1",1,"11/15/18","3/4/19"
"263",31428548,234,234,1,"NOTHINGHERE","17_24_BC_000058.JPG","17_24_BC_000059.JPG","17_24_BC_000060.JPG","17","24","Deciduous","BC","1",1,"11/15/18","3/4/19"
"264",31428549,235,235,1,"SQUIRRELGRAY","17_24_BC_000061.JPG","17_24_BC_000062.JPG","17_24_BC_000063.JPG","17","24","Deciduous","BC","1",1,"11/15/18","3/4/19"
"265",31428550,236,236,1,"SQUIRRELGRAY","17_24_BC_000064.JPG","17_24_BC_000065.JPG","17_24_BC_000066.JPG","17","24","Deciduous","BC","1",1,"11/15/18","3/4/19"
"266",31428551,237,237,2,"SQUIRRELGRAY","17_24_BC_000067.JPG","17_24_BC_000068.JPG","17_24_BC_000069.JPG","17","24","Deciduous","BC","1",1,"11/15/18","3/4/19"
"267",31428552,238,238,2,"NOTHINGHERE","17_24_BC_000070.JPG","17_24_BC_000071.JPG","17_24_BC_000072.JPG","17","24","Deciduous","BC","1",1,"11/15/18","3/4/19"
"268",31428553,239,239,1,"SQUIRRELGRAY","17_24_BC_000073.JPG","17_24_BC_000074.JPG","17_24_BC_000075.JPG","17","24","Deciduous","BC","1",1,"11/15/18","3/4/19"
"269",31428554,240,240,1,"DEERWHITETAILED","17_24_BC_000076.JPG","17_24_BC_000077.JPG","17_24_BC_000078.JPG","17","24","Deciduous","BC","1",1,"11/15/18","3/4/19"
"270",31428555,241,241,1,"DEERWHITETAILED","17_24_BC_000079.JPG","17_24_BC_000080.JPG","17_24_BC_000081.JPG","17","24","Deciduous","BC","1",1,"11/15/18","3/4/19"
"271",31428556,242,242,1,"DEERWHITETAILED","17_24_BC_000082.JPG","17_24_BC_000083.JPG","17_24_BC_000084.JPG","17","24","Deciduous","BC","1",1,"11/15/18","3/4/19"
"272",31428557,243,243,1,"DEERWHITETAILED","17_24_BC_000085.JPG","17_24_BC_000086.JPG","17_24_BC_000087.JPG","17","24","Deciduous","BC","1",1,"11/15/18","3/4/19"
"273",31428558,244,244,1,"SQUIRRELGRAY","17_24_BC_000088.JPG","17_24_BC_000089.JPG","17_24_BC_000090.JPG","17","24","Deciduous","BC","1",1,"11/15/18","3/4/19"
"274",31428559,245,245,1,"SQUIRRELGRAY","17_24_BC_000091.JPG","17_24_BC_000092.JPG","17_24_BC_000093.JPG","17","24","Deciduous","BC","1",1,"11/15/18","3/4/19"
"275",31428560,246,246,1,"SQUIRRELGRAY","17_24_BC_000094.JPG","17_24_BC_000095.JPG","17_24_BC_000096.JPG","17","24","Deciduous","BC","1",1,"11/15/18","3/4/19"
"276",31428561,247,247,1,"SQUIRRELGRAY","17_24_BC_000097.JPG","17_24_BC_000098.JPG","17_24_BC_000099.JPG","17","24","Deciduous","BC","1",1,"11/15/18","3/4/19"
"277",31428562,248,248,2,"SOMETHINGHERE","17_24_BC_000100.JPG","17_24_BC_000101.JPG","17_24_BC_000102.JPG","17","24","Deciduous","BC","1",1,"11/15/18","3/4/19"
"278",31428563,249,249,1,"DEERWHITETAILED","17_24_BC_000103.JPG","17_24_BC_000104.JPG","17_24_BC_000105.JPG","17","24","Deciduous","BC","1",1,"11/15/18","3/4/19"
"279",31428564,250,250,1,"DEERWHITETAILED","17_24_BC_000106.JPG","17_24_BC_000107.JPG","17_24_BC_000108.JPG","17","24","Deciduous","BC","1",1,"11/15/18","3/4/19"
"280",31428565,251,251,1,"DEERWHITETAILED","17_24_BC_000109.JPG","17_24_BC_000110.JPG","17_24_BC_000111.JPG","17","24","Deciduous","BC","1",1,"11/15/18","3/4/19"
"281",31428566,252,252,1,"DEERWHITETAILED","17_24_BC_000112.JPG","17_24_BC_000113.JPG","17_24_BC_000114.JPG","17","24","Deciduous","BC","1",1,"11/15/18","3/4/19"
"282",31428567,253,253,1,"NOTHINGHERE","17_24_BC_000115.JPG","17_24_BC_000116.JPG","17_24_BC_000117.JPG","17","24","Deciduous","BC","1",1,"11/15/18","3/4/19"
"283",31428568,254,254,1,"DEERWHITETAILED","17_24_BC_000118.JPG","17_24_BC_000119.JPG","17_24_BC_000120.JPG","17","24","Deciduous","BC","1",1,"11/15/18","3/4/19"
"284",31428569,255,255,1,"DEERWHITETAILED","17_24_BC_000121.JPG","17_24_BC_000122.JPG","17_24_BC_000123.JPG","17","24","Deciduous","BC","1",1,"11/15/18","3/4/19"
"285",31428570,256,256,1,"DEERWHITETAILED","17_24_BC_000124.JPG","17_24_BC_000125.JPG","17_24_BC_000126.JPG","17","24","Deciduous","BC","1",1,"11/15/18","3/4/19"
"286",31428571,257,257,1,"DEERWHITETAILED","17_24_BC_000127.JPG","17_24_BC_000128.JPG","17_24_BC_000129.JPG","17","24","Deciduous","BC","1",1,"11/15/18","3/4/19"
"287",31428572,258,258,2,"DEERWHITETAILED","17_24_BC_000130.JPG","17_24_BC_000131.JPG","17_24_BC_000132.JPG","17","24","Deciduous","BC","1",1,"11/15/18","3/4/19"
"288",31428573,259,259,1,"DEERWHITETAILED","17_24_BC_000133.JPG","17_24_BC_000134.JPG","17_24_BC_000135.JPG","17","24","Deciduous","BC","1",1,"11/15/18","3/4/19"
"289",31428574,260,260,1,"DEERWHITETAILED","17_24_BC_000136.JPG","17_24_BC_000137.JPG","17_24_BC_000138.JPG","17","24","Deciduous","BC","1",1,"11/15/18","3/4/19"
"290",31428575,261,261,1,"DEERWHITETAILED","17_24_BC_000139.JPG","17_24_BC_000140.JPG","17_24_BC_000141.JPG","17","24","Deciduous","BC","1",1,"11/15/18","3/4/19"
"291",31428576,262,262,1,"DEERWHITETAILED","17_24_BC_000142.JPG","17_24_BC_000143.JPG","17_24_BC_000144.JPG","17","24","Deciduous","BC","1",1,"11/15/18","3/4/19"
"292",31428577,263,263,1,"DEERWHITETAILED","17_24_BC_000145.JPG","17_24_BC_000146.JPG","17_24_BC_000147.JPG","17","24","Deciduous","BC","1",1,"11/15/18","3/4/19"
"293",31428578,264,264,1,"SQUIRRELGRAY","17_24_BC_000148.JPG","17_24_BC_000149.JPG","17_24_BC_000150.JPG","17","24","Deciduous","BC","1",1,"11/15/18","3/4/19"
"294",31428579,265,265,2,"NOTHINGHERE","17_24_BC_000151.JPG","17_24_BC_000152.JPG","17_24_BC_000153.JPG","17","24","Deciduous","BC","1",1,"11/15/18","3/4/19"
"295",31428580,266,266,1,"NOTHINGHERE","17_24_BC_000154.JPG","17_24_BC_000155.JPG","17_24_BC_000156.JPG","17","24","Deciduous","BC","1",1,"11/15/18","3/4/19"
"296",31428581,267,267,1,"DEERWHITETAILED","17_24_BC_000157.JPG","17_24_BC_000158.JPG","17_24_BC_000159.JPG","17","24","Deciduous","BC","1",1,"11/15/18","3/4/19"
"297",31428582,268,268,1,"SQUIRRELGRAY","17_24_BC_000160.JPG","17_24_BC_000161.JPG","17_24_BC_000162.JPG","17","24","Deciduous","BC","1",1,"11/15/18","3/4/19"
"298",31428583,269,269,1,"SQUIRRELGRAY","17_24_BC_000163.JPG","17_24_BC_000164.JPG","17_24_BC_000165.JPG","17","24","Deciduous","BC","1",1,"11/15/18","3/4/19"
"299",31428584,270,270,1,"NOTHINGHERE","17_24_BC_000166.JPG","17_24_BC_000167.JPG","17_24_BC_000168.JPG","17","24","Deciduous","BC","1",1,"11/15/18","3/4/19"
"300",31428585,271,271,1,"DEERWHITETAILED","17_24_BC_000169.JPG","17_24_BC_000170.JPG","17_24_BC_000171.JPG","17","24","Deciduous","BC","1",1,"11/15/18","3/4/19"
"301",31428586,272,272,2,"DEERWHITETAILED","17_24_BC_000172.JPG","17_24_BC_000173.JPG","17_24_BC_000174.JPG","17","24","Deciduous","BC","1",1,"11/15/18","3/4/19"
"302",31428587,273,273,1,"DEERWHITETAILED","17_24_BC_000175.JPG","17_24_BC_000176.JPG","17_24_BC_000177.JPG","17","24","Deciduous","BC","1",1,"11/15/18","3/4/19"
"303",31428588,274,274,1,"DEERWHITETAILED","17_24_BC_000178.JPG","17_24_BC_000179.JPG","17_24_BC_000180.JPG","17","24","Deciduous","BC","1",1,"11/15/18","3/4/19"
"304",31428589,275,275,1,"DEERWHITETAILED","17_24_BC_000181.JPG","17_24_BC_000182.JPG","17_24_BC_000183.JPG","17","24","Deciduous","BC","1",1,"11/15/18","3/4/19"
"305",31428590,276,276,1,"DEERWHITETAILED","17_24_BC_000184.JPG","17_24_BC_000185.JPG","17_24_BC_000186.JPG","17","24","Deciduous","BC","1",1,"11/15/18","3/4/19"
"306",31428591,277,277,1,"DEERWHITETAILED","17_24_BC_000187.JPG","17_24_BC_000188.JPG","17_24_BC_000189.JPG","17","24","Deciduous","BC","1",1,"11/15/18","3/4/19"
"307",31428592,278,278,1,"NOTHINGHERE","17_24_BC_000190.JPG","17_24_BC_000191.JPG","17_24_BC_000192.JPG","17","24","Deciduous","BC","1",1,"11/15/18","3/4/19"
"308",31428593,12784,12784,1,"DEERWHITETAILED","17_24_BC_000193.JPG","17_24_BC_000194.JPG","17_24_BC_000195.JPG","17","24","Deciduous","BC","1",1,"11/15/18","3/4/19"
"309",31428594,279,279,1,"NOTHINGHERE","17_24_BC_000196.JPG","17_24_BC_000197.JPG","17_24_BC_000198.JPG","17","24","Deciduous","BC","1",1,"11/15/18","3/4/19"
"310",31428595,280,280,2,"SOMETHINGHERE","17_24_BC_000199.JPG","17_24_BC_000200.JPG","17_24_BC_000201.JPG","17","24","Deciduous","BC","1",1,"11/15/18","3/4/19"
"311",31428596,281,281,1,"NOTHINGHERE","17_24_BC_000202.JPG","17_24_BC_000203.JPG","17_24_BC_000204.JPG","17","24","Deciduous","BC","1",1,"11/15/18","3/4/19"
"312",31428597,282,282,1,"RACCOON","17_24_BC_000205.JPG","17_24_BC_000206.JPG","17_24_BC_000207.JPG","17","24","Deciduous","BC","1",1,"11/15/18","3/4/19"
"313",31428598,283,283,1,"NOTHINGHERE","17_24_BC_000208.JPG","17_24_BC_000209.JPG","17_24_BC_000210.JPG","17","24","Deciduous","BC","1",1,"11/15/18","3/4/19"
"314",31428599,284,284,1,"RACCOON","17_24_BC_000211.JPG","17_24_BC_000212.JPG","17_24_BC_000213.JPG","17","24","Deciduous","BC","1",1,"11/15/18","3/4/19"
"315",31428600,285,285,1,"SQUIRRELGRAY","17_24_BC_000214.JPG","17_24_BC_000215.JPG","17_24_BC_000216.JPG","17","24","Deciduous","BC","1",1,"11/15/18","3/4/19"
"316",31428601,286,286,2,"DEERWHITETAILED","17_24_BC_000217.JPG","17_24_BC_000218.JPG","17_24_BC_000219.JPG","17","24","Deciduous","BC","1",1,"11/15/18","3/4/19"
"317",31428602,287,287,1,"DEERWHITETAILED","17_24_BC_000220.JPG","17_24_BC_000221.JPG","17_24_BC_000222.JPG","17","24","Deciduous","BC","1",1,"11/15/18","3/4/19"
"318",31428603,288,288,1,"SQUIRRELGRAY","17_24_BC_000223.JPG","17_24_BC_000224.JPG","17_24_BC_000225.JPG","17","24","Deciduous","BC","1",1,"11/15/18","3/4/19"
"319",31428604,289,289,1,"DEERWHITETAILED","17_24_BC_000226.JPG","17_24_BC_000227.JPG","17_24_BC_000228.JPG","17","24","Deciduous","BC","1",1,"11/15/18","3/4/19"
"320",31428605,290,290,1,"NOTHINGHERE","17_24_BC_000229.JPG","17_24_BC_000230.JPG","17_24_BC_000231.JPG","17","24","Deciduous","BC","1",1,"11/15/18","3/4/19"
"321",31428606,291,291,2,"SOMETHINGHERE","17_24_BC_000232.JPG","17_24_BC_000233.JPG","17_24_BC_000234.JPG","17","24","Deciduous","BC","1",1,"11/15/18","3/4/19"
"322",31428607,12783,12783,1,"DEERWHITETAILED","17_24_BC_000235.JPG","17_24_BC_000236.JPG","17_24_BC_000237.JPG","17","24","Deciduous","BC","1",1,"11/15/18","3/4/19"
"323",31428608,292,292,1,"DEERWHITETAILED","17_24_BC_000238.JPG","17_24_BC_000239.JPG","17_24_BC_000240.JPG","17","24","Deciduous","BC","1",1,"11/15/18","3/4/19"
"324",31428609,293,293,1,"DEERWHITETAILED","17_24_BC_000241.JPG","17_24_BC_000242.JPG","17_24_BC_000243.JPG","17","24","Deciduous","BC","1",1,"11/15/18","3/4/19"
"325",31428610,294,294,1,"DEERWHITETAILED","17_24_BC_000244.JPG","17_24_BC_000245.JPG","17_24_BC_000246.JPG","17","24","Deciduous","BC","1",1,"11/15/18","3/4/19"
"326",31428611,295,295,1,"NOTHINGHERE","17_24_BC_000247.JPG","17_24_BC_000248.JPG","17_24_BC_000249.JPG","17","24","Deciduous","BC","1",1,"11/15/18","3/4/19"
"327",31428612,296,296,1,"SQUIRRELGRAY","17_24_BC_000250.JPG","17_24_BC_000251.JPG","17_24_BC_000252.JPG","17","24","Deciduous","BC","1",1,"11/15/18","3/4/19"
"328",31428613,297,297,1,"SQUIRRELGRAY","17_24_BC_000253.JPG","17_24_BC_000254.JPG","17_24_BC_000255.JPG","17","24","Deciduous","BC","1",1,"11/15/18","3/4/19"
"329",31428614,298,298,2,"SQUIRRELGRAY","17_24_BC_000256.JPG","17_24_BC_000257.JPG","17_24_BC_000258.JPG","17","24","Deciduous","BC","1",1,"11/15/18","3/4/19"
"330",31428615,299,299,1,"SQUIRRELGRAY","17_24_BC_000259.JPG","17_24_BC_000260.JPG","17_24_BC_000261.JPG","17","24","Deciduous","BC","1",1,"11/15/18","3/4/19"
"331",31428616,12782,12782,1,"SQUIRRELGRAY","17_24_BC_000262.JPG","17_24_BC_000263.JPG","17_24_BC_000264.JPG","17","24","Deciduous","BC","1",1,"11/15/18","3/4/19"
"332",31428617,12781,12781,1,"SQUIRRELGRAY","17_24_BC_000265.JPG","17_24_BC_000266.JPG","17_24_BC_000267.JPG","17","24","Deciduous","BC","1",1,"11/15/18","3/4/19"
"333",31428618,12780,12780,1,"SQUIRRELRED","17_24_BC_000268.JPG","17_24_BC_000269.JPG","17_24_BC_000270.JPG","17","24","Deciduous","BC","1",1,"11/15/18","3/4/19"
"334",31428619,300,300,1,"SQUIRRELGRAY","17_24_BC_000271.JPG","17_24_BC_000272.JPG","17_24_BC_000273.JPG","17","24","Deciduous","BC","1",1,"11/15/18","3/4/19"
"335",31428620,301,301,1,"NOTHINGHERE","18_16_WHIP_000001.JPG","18_16_WHIP_000002.JPG","18_16_WHIP_000003.JPG","18","16","Pine","WHIP","1",1,"12/18/18","1/24/19"
"336",31428621,12779,12779,1,"FISHER","18_16_WHIP_000004.JPG","18_16_WHIP_000005.JPG","18_16_WHIP_000006.JPG","18","16","Pine","WHIP","1",1,"12/18/18","1/24/19"
"337",31428622,302,302,2,"RACCOON","18_16_WHIP_000007.JPG","18_16_WHIP_000008.JPG","18_16_WHIP_000009.JPG","18","16","Pine","WHIP","1",1,"12/18/18","1/24/19"
"338",31428623,303,303,2,"RACCOON","18_16_WHIP_000010.JPG","18_16_WHIP_000011.JPG","18_16_WHIP_000012.JPG","18","16","Pine","WHIP","1",1,"12/18/18","1/24/19"
"339",31428624,304,304,2,"RACCOON","18_16_WHIP_000013.JPG","18_16_WHIP_000014.JPG","18_16_WHIP_000015.JPG","18","16","Pine","WHIP","1",1,"12/18/18","1/24/19"
"340",31428625,305,305,1,"DEERWHITETAILED","18_16_WHIP_000016.JPG","18_16_WHIP_000017.JPG","18_16_WHIP_000018.JPG","18","16","Pine","WHIP","1",1,"12/18/18","1/24/19"
"341",31428626,306,306,1,"DEERWHITETAILED","18_16_WHIP_000019.JPG","18_16_WHIP_000020.JPG","18_16_WHIP_000021.JPG","18","16","Pine","WHIP","1",1,"12/18/18","1/24/19"
"342",31428627,307,307,1,"DEERWHITETAILED","18_16_WHIP_000022.JPG","18_16_WHIP_000023.JPG","18_16_WHIP_000024.JPG","18","16","Pine","WHIP","1",1,"12/18/18","1/24/19"
"343",31428628,308,308,1,"DEERWHITETAILED","18_16_WHIP_000025.JPG","18_16_WHIP_000026.JPG","18_16_WHIP_000027.JPG","18","16","Pine","WHIP","1",1,"12/18/18","1/24/19"
"344",31428629,309,309,1,"DEERWHITETAILED","18_16_WHIP_000028.JPG","18_16_WHIP_000029.JPG","18_16_WHIP_000030.JPG","18","16","Pine","WHIP","1",1,"12/18/18","1/24/19"
"345",31428630,310,310,1,"DEERWHITETAILED","18_16_WHIP_000031.JPG","18_16_WHIP_000032.JPG","18_16_WHIP_000033.JPG","18","16","Pine","WHIP","1",1,"12/18/18","1/24/19"
"346",31428631,311,311,1,"DEERWHITETAILED","18_16_WHIP_000034.JPG","18_16_WHIP_000035.JPG","18_16_WHIP_000036.JPG","18","16","Pine","WHIP","1",1,"12/18/18","1/24/19"
"347",31428632,312,312,1,"DEERWHITETAILED","18_16_WHIP_000037.JPG","18_16_WHIP_000038.JPG","18_16_WHIP_000039.JPG","18","16","Pine","WHIP","1",1,"12/18/18","1/24/19"
"348",31428633,12778,12778,1,"FISHER","18_16_WHIP_000040.JPG","18_16_WHIP_000041.JPG","18_16_WHIP_000042.JPG","18","16","Pine","WHIP","1",1,"12/18/18","1/24/19"
"349",31428634,313,313,1,"RACCOON","18_16_WHIP_000043.JPG","18_16_WHIP_000044.JPG","18_16_WHIP_000045.JPG","18","16","Pine","WHIP","1",1,"12/18/18","1/24/19"
"350",31428635,314,314,1,"DEERWHITETAILED","18_16_WHIP_000046.JPG","18_16_WHIP_000047.JPG","18_16_WHIP_000048.JPG","18","16","Pine","WHIP","1",1,"12/18/18","1/24/19"
"351",31428636,315,315,1,"DEERWHITETAILED","18_16_WHIP_000049.JPG","18_16_WHIP_000050.JPG","18_16_WHIP_000051.JPG","18","16","Pine","WHIP","1",1,"12/18/18","1/24/19"
"352",31428637,316,316,2,"DEERWHITETAILED","18_16_WHIP_000052.JPG","18_16_WHIP_000053.JPG","18_16_WHIP_000054.JPG","18","16","Pine","WHIP","1",1,"12/18/18","1/24/19"
"353",31428638,317,317,1,"COYOTE","18_16_WHIP_000055.JPG","18_16_WHIP_000056.JPG","18_16_WHIP_000057.JPG","18","16","Pine","WHIP","1",1,"12/18/18","1/24/19"
"354",31428639,318,318,1,"DEERWHITETAILED","18_16_WHIP_000058.JPG","18_16_WHIP_000059.JPG","18_16_WHIP_000060.JPG","18","16","Pine","WHIP","1",1,"12/18/18","1/24/19"
"355",31428640,319,319,1,"DEERWHITETAILED","18_16_WHIP_000061.JPG","18_16_WHIP_000062.JPG","18_16_WHIP_000063.JPG","18","16","Pine","WHIP","1",1,"12/18/18","1/24/19"
"356",31428641,320,320,1,"NOTHINGHERE","18_16_WHIP_000064.JPG","18_16_WHIP_000065.JPG","18_16_WHIP_000066.JPG","18","16","Pine","WHIP","1",1,"12/18/18","1/24/19"
"357",31428642,321,321,1,"NOTHINGHERE","21_21_DON__0027.JPG","21_21_DON_0028.JPG","21_21_DON_0029.JPG","21","21","Deciduous","DON","1",1,"11/26/18","2/28/19"
"358",31428643,12777,12777,1,"HUMAN","21_21_DON_0001.JPG","21_21_DON_0002.JPG",NA,"21","21","Deciduous","DON","1",1,"11/26/18","2/28/19"
"359",31428644,12776,12776,1,"FOXRED","21_21_DON_0003.JPG","21_21_DON_0004.JPG","21_21_DON_0005.JPG","21","21","Deciduous","DON","1",1,"11/26/18","2/28/19"
"360",31428645,322,322,1,"NOTHINGHERE","21_21_DON_0006.JPG","21_21_DON_0007.JPG","21_21_DON_0008.JPG","21","21","Deciduous","DON","1",1,"11/26/18","2/28/19"
"361",31428646,323,323,1,"SOMETHINGHERE","21_21_DON_0009.JPG","21_21_DON_0010.JPG","21_21_DON_0011.JPG","21","21","Deciduous","DON","1",1,"11/26/18","2/28/19"
"362",31428647,324,324,1,"NOTHINGHERE","21_21_DON_0012.JPG","21_21_DON_0013.JPG","21_21_DON_0014.JPG","21","21","Deciduous","DON","1",1,"11/26/18","2/28/19"
"363",31428648,325,325,1,"NOTHINGHERE","21_21_DON_0015.JPG","21_21_DON_0016.JPG","21_21_DON_0017.JPG","21","21","Deciduous","DON","1",1,"11/26/18","2/28/19"
"364",31428649,326,326,1,"NOTHINGHERE","21_21_DON_0018.JPG","21_21_DON_0019.JPG","21_21_DON_0020.JPG","21","21","Deciduous","DON","1",1,"11/26/18","2/28/19"
"365",31428650,327,327,1,"NOTHINGHERE","21_21_DON_0021.JPG","21_21_DON_0022.JPG","21_21_DON_0023.JPG","21","21","Deciduous","DON","1",1,"11/26/18","2/28/19"
"366",31428651,328,328,1,"NOTHINGHERE","21_21_DON_0024.JPG","21_21_DON_0025.JPG","21_21_DON_0026.JPG","21","21","Deciduous","DON","1",1,"11/26/18","2/28/19"
"367",31428652,12775,12775,1,"FOXRED","21_21_DON_0030.JPG","21_21_DON_0031.JPG","21_21_DON_0032.JPG","21","21","Deciduous","DON","1",1,"11/26/18","2/28/19"
"368",31428653,329,329,1,"NOTHINGHERE","21_21_DON_0033.JPG","21_21_DON_0034.JPG","21_21_DON_0035.JPG","21","21","Deciduous","DON","1",1,"11/26/18","2/28/19"
"369",31428654,330,330,2,"FOXRED","21_21_DON_0036.JPG","21_21_DON_0037.JPG","21_21_DON_0038.JPG","21","21","Deciduous","DON","1",1,"11/26/18","2/28/19"
"370",31428655,331,331,2,"FOXRED","21_21_DON_0039.JPG","21_21_DON_0040.JPG","21_21_DON_0041.JPG","21","21","Deciduous","DON","1",1,"11/26/18","2/28/19"
"371",31428656,332,332,2,"SQUIRRELGRAY","21_21_DON_0042.JPG","21_21_DON_0043.JPG","21_21_DON_0044.JPG","21","21","Deciduous","DON","1",1,"11/26/18","2/28/19"
"372",31428657,333,333,1,"NOTHINGHERE","21_21_DON_0045.JPG","21_21_DON_0046.JPG","21_21_DON_0047.JPG","21","21","Deciduous","DON","1",1,"11/26/18","2/28/19"
"373",31428658,334,334,1,"NOTHINGHERE","21_21_DON_0048.JPG","21_21_DON_0049.JPG","21_21_DON_0050.JPG","21","21","Deciduous","DON","1",1,"11/26/18","2/28/19"
"374",31428659,335,335,1,"NOTHINGHERE","21_21_DON_0051.JPG","21_21_DON_0052.JPG","21_21_DON_0053.JPG","21","21","Deciduous","DON","1",1,"11/26/18","2/28/19"
"375",31428660,336,336,1,"NOTHINGHERE","21_21_DON_0054.JPG","21_21_DON_0055.JPG","21_21_DON_0056.JPG","21","21","Deciduous","DON","1",1,"11/26/18","2/28/19"
"376",31428661,337,337,1,"NOTHINGHERE","21_21_DON_0057.JPG","21_21_DON_0058.JPG","21_21_DON_0059.JPG","21","21","Deciduous","DON","1",1,"11/26/18","2/28/19"
"377",31428662,338,338,1,"NOTHINGHERE","21_21_DON_0060.JPG","21_21_DON_0061.JPG","21_21_DON_0062.JPG","21","21","Deciduous","DON","1",1,"11/26/18","2/28/19"
"378",31428663,339,339,1,"NOTHINGHERE","21_21_DON_0063.JPG","21_21_DON_0064.JPG","21_21_DON_0065.JPG","21","21","Deciduous","DON","1",1,"11/26/18","2/28/19"
"379",31428664,340,340,1,"NOTHINGHERE","21_21_DON_0066.JPG","21_21_DON_0067.JPG","21_21_DON_0068.JPG","21","21","Deciduous","DON","1",1,"11/26/18","2/28/19"
"380",31428665,341,341,1,"NOTHINGHERE","21_21_DON_0069.JPG","21_21_DON_0070.JPG","21_21_DON_0071.JPG","21","21","Deciduous","DON","1",1,"11/26/18","2/28/19"
"381",31428666,342,342,1,"NOTHINGHERE","21_21_DON_0072.JPG","21_21_DON_0073.JPG","21_21_DON_0074.JPG","21","21","Deciduous","DON","1",1,"11/26/18","2/28/19"
"382",31428667,343,343,1,"NOTHINGHERE","21_21_DON_0075.JPG","21_21_DON_0076.JPG","21_21_DON_0077.JPG","21","21","Deciduous","DON","1",1,"11/26/18","2/28/19"
"383",31428668,344,344,1,"NOTHINGHERE","21_21_DON_0078.JPG","21_21_DON_0079.JPG","21_21_DON_0080.JPG","21","21","Deciduous","DON","1",1,"11/26/18","2/28/19"
"384",31428669,345,345,1,"NOTHINGHERE","21_21_DON_0081.JPG","21_21_DON_0082.JPG","21_21_DON_0083.JPG","21","21","Deciduous","DON","1",1,"11/26/18","2/28/19"
"385",31428670,346,346,1,"NOTHINGHERE","21_21_DON_0084.JPG","21_21_DON_0085.JPG","21_21_DON_0086.JPG","21","21","Deciduous","DON","1",1,"11/26/18","2/28/19"
"386",31428671,347,347,1,"NOTHINGHERE","21_21_DON_0087.JPG","21_21_DON_0088.JPG","21_21_DON_0089.JPG","21","21","Deciduous","DON","1",1,"11/26/18","2/28/19"
"387",31428672,348,348,1,"NOTHINGHERE","21_21_DON_0090.JPG","21_21_DON_0091.JPG","21_21_DON_0092.JPG","21","21","Deciduous","DON","1",1,"11/26/18","2/28/19"
"388",31428673,349,349,1,"NOTHINGHERE","21_21_DON_0093.JPG","21_21_DON_0094.JPG","21_21_DON_0095.JPG","21","21","Deciduous","DON","1",1,"11/26/18","2/28/19"
"389",31428674,350,350,1,"NOTHINGHERE","21_21_DON_0096.JPG","21_21_DON_0097.JPG","21_21_DON_0098.JPG","21","21","Deciduous","DON","1",1,"11/26/18","2/28/19"
"390",31428675,351,351,1,"NOTHINGHERE","21_21_DON_0099.JPG","21_21_DON_0100.JPG","21_21_DON_0101.JPG","21","21","Deciduous","DON","1",1,"11/26/18","2/28/19"
"391",31428676,352,352,1,"NOTHINGHERE","21_21_DON_0102.JPG","21_21_DON_0103.JPG","21_21_DON_0104.JPG","21","21","Deciduous","DON","1",1,"11/26/18","2/28/19"
"392",31428677,353,353,1,"NOTHINGHERE","21_21_DON_0105.JPG","21_21_DON_0106.JPG","21_21_DON_0107.JPG","21","21","Deciduous","DON","1",1,"11/26/18","2/28/19"
"393",31428678,354,354,1,"NOTHINGHERE","21_21_DON_0108.JPG","21_21_DON_0109.JPG","21_21_DON_0110.JPG","21","21","Deciduous","DON","1",1,"11/26/18","2/28/19"
"394",31428679,355,355,1,"NOTHINGHERE","21_21_DON_0111.JPG","21_21_DON_0112.JPG","21_21_DON_0113.JPG","21","21","Deciduous","DON","1",1,"11/26/18","2/28/19"
"395",31428680,356,356,1,"NOTHINGHERE","21_21_DON_0114.JPG","21_21_DON_0115.JPG","21_21_DON_0116.JPG","21","21","Deciduous","DON","1",1,"11/26/18","2/28/19"
"396",31428681,357,357,1,"NOTHINGHERE","21_21_DON_0117.JPG","21_21_DON_0118.JPG","21_21_DON_0119.JPG","21","21","Deciduous","DON","1",1,"11/26/18","2/28/19"
"397",31428682,358,358,1,"NOTHINGHERE","21_21_DON_0120.JPG","21_21_DON_0121.JPG","21_21_DON_0122.JPG","21","21","Deciduous","DON","1",1,"11/26/18","2/28/19"
"398",31428683,359,359,1,"NOTHINGHERE","21_21_DON_0123.JPG","21_21_DON_0124.JPG","21_21_DON_0125.JPG","21","21","Deciduous","DON","1",1,"11/26/18","2/28/19"
"399",31428684,360,360,2,"NOTHINGHERE","21_21_DON_0126.JPG","21_21_DON_0127.JPG","21_21_DON_0128.JPG","21","21","Deciduous","DON","1",1,"11/26/18","2/28/19"
"400",31428685,361,361,1,"NOTHINGHERE","21_21_DON_0129.JPG","21_21_DON_0130.JPG","21_21_DON_0131.JPG","21","21","Deciduous","DON","1",1,"11/26/18","2/28/19"
"401",31428686,362,362,2,"NOTHINGHERE","21_21_DON_0132.JPG","21_21_DON_0133.JPG","21_21_DON_0134.JPG","21","21","Deciduous","DON","1",1,"11/26/18","2/28/19"
"402",31428687,363,363,1,"NOTHINGHERE","21_21_DON_0135.JPG","21_21_DON_0136.JPG","21_21_DON_0137.JPG","21","21","Deciduous","DON","1",1,"11/26/18","2/28/19"
"403",31428688,364,364,1,"NOTHINGHERE","21_21_DON_0138.JPG","21_21_DON_0139.JPG","21_21_DON_0140.JPG","21","21","Deciduous","DON","1",1,"11/26/18","2/28/19"
"404",31428689,365,365,1,"NOTHINGHERE","21_21_DON_0141.JPG","21_21_DON_0142.JPG","21_21_DON_0143.JPG","21","21","Deciduous","DON","1",1,"11/26/18","2/28/19"
"405",31428690,366,366,1,"NOTHINGHERE","21_21_DON_0144.JPG","21_21_DON_0145.JPG","21_21_DON_0146.JPG","21","21","Deciduous","DON","1",1,"11/26/18","2/28/19"
"406",31428691,367,367,1,"NOTHINGHERE","21_21_DON_0147.JPG","21_21_DON_0148.JPG","21_21_DON_0149.JPG","21","21","Deciduous","DON","1",1,"11/26/18","2/28/19"
"407",31428692,368,368,1,"NOTHINGHERE","21_21_DON_0150.JPG","21_21_DON_0151.JPG","21_21_DON_0152.JPG","21","21","Deciduous","DON","1",1,"11/26/18","2/28/19"
"408",31428693,369,369,1,"NOTHINGHERE","21_21_DON_0153.JPG","21_21_DON_0154.JPG","21_21_DON_0155.JPG","21","21","Deciduous","DON","1",1,"11/26/18","2/28/19"
"409",31428694,370,370,1,"NOTHINGHERE","21_21_DON_0156.JPG","21_21_DON_0157.JPG","21_21_DON_0158.JPG","21","21","Deciduous","DON","1",1,"11/26/18","2/28/19"
"410",31428695,371,371,1,"NOTHINGHERE","21_21_DON_0159.JPG","21_21_DON_0160.JPG","21_21_DON_0161.JPG","21","21","Deciduous","DON","1",1,"11/26/18","2/28/19"
"411",31428696,372,372,1,"NOTHINGHERE","21_21_DON_0162.JPG","21_21_DON_0163.JPG","21_21_DON_0164.JPG","21","21","Deciduous","DON","1",1,"11/26/18","2/28/19"
"412",31428697,373,373,1,"NOTHINGHERE","21_21_DON_0165.JPG","21_21_DON_0166.JPG","21_21_DON_0167.JPG","21","21","Deciduous","DON","1",1,"11/26/18","2/28/19"
"413",31428698,12774,12774,1,"GROUSERUFFED","21_21_DON_0168.JPG","21_21_DON_0169.JPG","21_21_DON_0170.JPG","21","21","Deciduous","DON","1",1,"11/26/18","2/28/19"
"414",31428699,374,374,1,"NOTHINGHERE","21_21_DON_0171.JPG","21_21_DON_0172.JPG","21_21_DON_0173.JPG","21","21","Deciduous","DON","1",1,"11/26/18","2/28/19"
"415",31428700,375,375,1,"NOTHINGHERE","21_21_DON_0174.JPG","21_21_DON_0175.JPG","21_21_DON_0176.JPG","21","21","Deciduous","DON","1",1,"11/26/18","2/28/19"
"416",31428701,376,376,1,"NOTHINGHERE","21_21_DON_0177.JPG","21_21_DON_0178.JPG","21_21_DON_0179.JPG","21","21","Deciduous","DON","1",1,"11/26/18","2/28/19"
"417",31428702,377,377,1,"NOTHINGHERE","21_21_DON_0180.JPG","21_21_DON_0181.JPG","21_21_DON_0182.JPG","21","21","Deciduous","DON","1",1,"11/26/18","2/28/19"
"418",31428703,378,378,2,"COYOTE","22_18_WF_0001.JPG","22_18_WF_0002.JPG","22_18_WF_0003.JPG","22","18","Pine","WF","1",1,"11/17/18","1/31/19"
"419",31428704,379,379,2,"FISHER","22_18_WF_0004.JPG","22_18_WF_0005.JPG","22_18_WF_0006.JPG","22","18","Pine","WF","1",1,"11/17/18","1/31/19"
"420",31428705,380,380,2,"SOMETHINGHERE","22_18_WF_0007.JPG","22_18_WF_0008.JPG","22_18_WF_0009.JPG","22","18","Pine","WF","1",1,"11/17/18","1/31/19"
"421",31428706,12773,12773,1,"FISHER","22_18_WF_0010.JPG","22_18_WF_0011.JPG","22_18_WF_0012.JPG","22","18","Pine","WF","1",1,"11/17/18","1/31/19"
"422",31428707,381,381,2,"FISHER","22_18_WF_0013.JPG","22_18_WF_0014.JPG","22_18_WF_0015.JPG","22","18","Pine","WF","1",1,"11/17/18","1/31/19"
"423",31428708,382,382,1,"FISHER","22_18_WF_0016.JPG","22_18_WF_0017.JPG","22_18_WF_0018.JPG","22","18","Pine","WF","1",1,"11/17/18","1/31/19"
"424",31428709,383,383,2,"FISHER","22_18_WF_0019.JPG","22_18_WF_0020.JPG","22_18_WF_0021.JPG","22","18","Pine","WF","1",1,"11/17/18","1/31/19"
"425",31428710,384,384,1,"DEERWHITETAILED","22_18_WF_0022.JPG","22_18_WF_0023.JPG","22_18_WF_0024.JPG","22","18","Pine","WF","1",1,"11/17/18","1/31/19"
"426",31428711,385,385,1,"DEERWHITETAILED","22_18_WF_0025.JPG","22_18_WF_0026.JPG","22_18_WF_0027.JPG","22","18","Pine","WF","1",1,"11/17/18","1/31/19"
"427",31428712,386,386,1,"DEERWHITETAILED","22_18_WF_0028.JPG","22_18_WF_0029.JPG","22_18_WF_0030.JPG","22","18","Pine","WF","1",1,"11/17/18","1/31/19"
"428",31428713,387,387,1,"DEERWHITETAILED","22_18_WF_0031.JPG","22_18_WF_0032.JPG",NA,"22","18","Pine","WF","1",1,"11/17/18","1/31/19"
"429",31428714,388,388,2,"FISHER","22_18_WF_0037.JPG","22_18_WF_0038.JPG","22_18_WF_0039.JPG","22","18","Pine","WF","1",1,"11/17/18","1/31/19"
"430",31428715,389,389,1,"DEERWHITETAILED","22_18_WF_0040.JPG","22_18_WF_0041.JPG","22_18_WF_0042.JPG","22","18","Pine","WF","1",1,"11/17/18","1/31/19"
"431",31428716,390,390,1,"DEERWHITETAILED","22_18_WF_0043.JPG","22_18_WF_0044.JPG","22_18_WF_0045.JPG","22","18","Pine","WF","1",1,"11/17/18","1/31/19"
"432",31428717,391,391,1,"DEERWHITETAILED","22_18_WF_0046.JPG","22_18_WF_0047.JPG","22_18_WF_0048.JPG","22","18","Pine","WF","1",1,"11/17/18","1/31/19"
"433",31428718,392,392,1,"DEERWHITETAILED","22_18_WF_0049.JPG","22_18_WF_0050.JPG","22_18_WF_0051.JPG","22","18","Pine","WF","1",1,"11/17/18","1/31/19"
"434",31428719,12772,12772,1,"FISHER","22_18_WF_0052.JPG","22_18_WF_0053.JPG","22_18_WF_0054.JPG","22","18","Pine","WF","1",1,"11/17/18","1/31/19"
"435",31428720,393,393,1,"DEERWHITETAILED","22_18_WF_0055.JPG","22_18_WF_0056.JPG","22_18_WF_0057.JPG","22","18","Pine","WF","1",1,"11/17/18","1/31/19"
"436",31428721,394,394,1,"DEERWHITETAILED","22_18_WF_0058.JPG","22_18_WF_0059.JPG","22_18_WF_0060.JPG","22","18","Pine","WF","1",1,"11/17/18","1/31/19"
"437",31428722,395,395,1,"DEERWHITETAILED","22_18_WF_0061.JPG","22_18_WF_0062.JPG","22_18_WF_0063.JPG","22","18","Pine","WF","1",1,"11/17/18","1/31/19"
"438",31428723,12771,12771,1,"COYOTE","22_18_WF_0064.JPG","22_18_WF_0065.JPG","22_18_WF_0066.JPG","22","18","Pine","WF","1",1,"11/17/18","1/31/19"
"439",31428724,396,396,1,"DEERWHITETAILED","22_18_WF_0067.JPG","22_18_WF_0068.JPG","22_18_WF_0069.JPG","22","18","Pine","WF","1",1,"11/17/18","1/31/19"
"440",31428725,397,397,1,"DEERWHITETAILED","22_18_WF_0070.JPG","22_18_WF_0071.JPG","22_18_WF_0072.JPG","22","18","Pine","WF","1",1,"11/17/18","1/31/19"
"441",31428726,398,398,1,"FISHER","22_18_WF_0073.JPG","22_18_WF_0074.JPG","22_18_WF_0075.JPG","22","18","Pine","WF","1",1,"11/17/18","1/31/19"
"442",31428727,399,399,1,"SOMETHINGHERE","22_18_WF_0076.JPG","22_18_WF_0077.JPG","22_18_WF_0078.JPG","22","18","Pine","WF","1",1,"11/17/18","1/31/19"
"443",31428728,400,400,1,"DEERWHITETAILED","22_18_WF_0079.JPG","22_18_WF_0080.JPG","22_18_WF_0081.JPG","22","18","Pine","WF","1",1,"11/17/18","1/31/19"
"444",31428729,12770,12770,1,"DOMESTICDOG","22_18_WF_0082.JPG","22_18_WF_0083.JPG","22_18_WF_0084.JPG","22","18","Pine","WF","1",1,"11/17/18","1/31/19"
"445",31428730,12769,12769,1,"COYOTE","22_18_WF_0085.JPG","22_18_WF_0086.JPG","22_18_WF_0087.JPG","22","18","Pine","WF","1",1,"11/17/18","1/31/19"
"446",31428731,401,401,1,"DEERWHITETAILED","22_18_WF_0088.JPG","22_18_WF_0089.JPG","22_18_WF_0090.JPG","22","18","Pine","WF","1",1,"11/17/18","1/31/19"
"447",31428732,402,402,1,"DEERWHITETAILED","22_18_WF_0091.JPG","22_18_WF_0092.JPG","22_18_WF_0093.JPG","22","18","Pine","WF","1",1,"11/17/18","1/31/19"
"448",31428733,403,403,1,"DEERWHITETAILED","22_18_WF_0094.JPG","22_18_WF_0095.JPG","22_18_WF_0096.JPG","22","18","Pine","WF","1",1,"11/17/18","1/31/19"
"449",31428734,404,404,2,"DEERWHITETAILED","22_18_WF_0097.JPG","22_18_WF_0098.JPG","22_18_WF_0099.JPG","22","18","Pine","WF","1",1,"11/17/18","1/31/19"
"450",31428735,405,405,2,"DEERWHITETAILED","22_18_WF_0100.JPG","22_18_WF_0101.JPG","22_18_WF_0102.JPG","22","18","Pine","WF","1",1,"11/17/18","1/31/19"
"451",31428736,12768,12768,1,"DEERWHITETAILED","22_18_WF_0103.JPG","22_18_WF_0104.JPG","22_18_WF_0105.JPG","22","18","Pine","WF","1",1,"11/17/18","1/31/19"
"452",31428737,406,406,1,"NOTHINGHERE","22_18_WF_0106.JPG","22_18_WF_0107.JPG","22_18_WF_0108.JPG","22","18","Pine","WF","1",1,"11/17/18","1/31/19"
"453",31428738,407,407,1,"DEERWHITETAILED","22_18_WF_0109.JPG","22_18_WF_0110.JPG","22_18_WF_0111.JPG","22","18","Pine","WF","1",1,"11/17/18","1/31/19"
"454",31428739,408,408,2,"FISHER","22_18_WF_0112.JPG","22_18_WF_0113.JPG","22_18_WF_0114.JPG","22","18","Pine","WF","1",1,"11/17/18","1/31/19"
"455",31428740,12767,12767,1,"FISHER","22_18_WF_0115.JPG","22_18_WF_0116.JPG","22_18_WF_0117.JPG","22","18","Pine","WF","1",1,"11/17/18","1/31/19"
"456",31428741,409,409,1,"DEERWHITETAILED","22_18_WF_0118.JPG","22_18_WF_0119.JPG","22_18_WF_0120.JPG","22","18","Pine","WF","1",1,"11/17/18","1/31/19"
"457",31428742,410,410,1,"DEERWHITETAILED","22_18_WF_0121.JPG","22_18_WF_0122.JPG","22_18_WF_0123.JPG","22","18","Pine","WF","1",1,"11/17/18","1/31/19"
"458",31428743,411,411,2,"COYOTE","22_18_WF_0124.JPG","22_18_WF_0125.JPG","22_18_WF_0126.JPG","22","18","Pine","WF","1",1,"11/17/18","1/31/19"
"459",31428744,412,412,1,"DEERWHITETAILED","22_18_WF_0127.JPG","22_18_WF_0128.JPG","22_18_WF_0129.JPG","22","18","Pine","WF","1",1,"11/17/18","1/31/19"
"460",31428745,413,413,1,"DEERWHITETAILED","22_18_WF_0130.JPG","22_18_WF_0131.JPG","22_18_WF_0132.JPG","22","18","Pine","WF","1",1,"11/17/18","1/31/19"
"461",31428746,12766,12766,1,"NOTHINGHERE","22_18_WF_0133.JPG","22_18_WF_0134.JPG","22_18_WF_0135.JPG","22","18","Pine","WF","1",1,"11/17/18","1/31/19"
"462",31428747,414,414,2,"DEERWHITETAILED","22_18_WF_0136.JPG","22_18_WF_0137.JPG","22_18_WF_0138.JPG","22","18","Pine","WF","1",1,"11/17/18","1/31/19"
"463",31428748,415,415,1,"DEERWHITETAILED","22_18_WF_0139.JPG","22_18_WF_0140.JPG","22_18_WF_0141.JPG","22","18","Pine","WF","1",1,"11/17/18","1/31/19"
"464",31428749,416,416,1,"NOTHINGHERE","22_18_WF_0142.JPG","22_18_WF_0143.JPG","22_18_WF_0144.JPG","22","18","Pine","WF","1",1,"11/17/18","1/31/19"
"465",31428750,417,417,1,"DEERWHITETAILED","22_18_WF_0145.JPG","22_18_WF_0146.JPG","22_18_WF_0147.JPG","22","18","Pine","WF","1",1,"11/17/18","1/31/19"
"466",31428751,418,418,1,"DEERWHITETAILED","22_18_WF_0148.JPG","22_18_WF_0149.JPG","22_18_WF_0150.JPG","22","18","Pine","WF","1",1,"11/17/18","1/31/19"
"467",31428752,419,419,1,"DEERWHITETAILED","22_18_WF_0151.JPG","22_18_WF_0152.JPG","22_18_WF_0153.JPG","22","18","Pine","WF","1",1,"11/17/18","1/31/19"
"468",31428753,420,420,1,"DEERWHITETAILED","22_18_WF_0154.JPG","22_18_WF_0155.JPG","22_18_WF_0156.JPG","22","18","Pine","WF","1",1,"11/17/18","1/31/19"
"469",31428754,421,421,1,"DEERWHITETAILED","22_18_WF_0157.JPG","22_18_WF_0158.JPG","22_18_WF_0159.JPG","22","18","Pine","WF","1",1,"11/17/18","1/31/19"
"470",31428755,422,422,1,"DEERWHITETAILED","22_18_WF_0160.JPG","22_18_WF_0161.JPG","22_18_WF_0162.JPG","22","18","Pine","WF","1",1,"11/17/18","1/31/19"
"471",31428756,423,423,1,"DEERWHITETAILED","22_18_WF_0163.JPG","22_18_WF_0164.JPG","22_18_WF_0165.JPG","22","18","Pine","WF","1",1,"11/17/18","1/31/19"
"472",31428757,424,424,1,"DEERWHITETAILED","22_18_WF_0166.JPG","22_18_WF_0167.JPG","22_18_WF_0168.JPG","22","18","Pine","WF","1",1,"11/17/18","1/31/19"
"473",31428758,425,425,1,"DEERWHITETAILED","22_18_WF_0169.JPG","22_18_WF_0170.JPG","22_18_WF_0171.JPG","22","18","Pine","WF","1",1,"11/17/18","1/31/19"
"474",31428759,426,426,1,"DEERWHITETAILED","22_18_WF_0172.JPG","22_18_WF_0173.JPG",NA,"22","18","Pine","WF","1",1,"11/17/18","1/31/19"
"475",31428760,427,427,1,"DEERWHITETAILED","22_18_WF_0178.JPG","22_18_WF_0179.JPG","22_18_WF_0180.JPG","22","18","Pine","WF","1",1,"11/17/18","1/31/19"
"476",31428761,428,428,1,"DEERWHITETAILED","22_18_WF_0181.JPG","22_18_WF_0182.JPG","22_18_WF_0183.JPG","22","18","Pine","WF","1",1,"11/17/18","1/31/19"
"477",31428762,429,429,1,"DEERWHITETAILED","22_18_WF_0184.JPG","22_18_WF_0185.JPG","22_18_WF_0186.JPG","22","18","Pine","WF","1",1,"11/17/18","1/31/19"
"478",31428763,430,430,1,"DEERWHITETAILED","22_18_WF_0187.JPG","22_18_WF_0188.JPG","22_18_WF_0189.JPG","22","18","Pine","WF","1",1,"11/17/18","1/31/19"
"479",31428764,431,431,1,"DEERWHITETAILED","22_18_WF_0190.JPG","22_18_WF_0191.JPG","22_18_WF_0192.JPG","22","18","Pine","WF","1",1,"11/17/18","1/31/19"
"480",31428765,432,432,1,"DEERWHITETAILED","22_18_WF_0193.JPG","22_18_WF_0194.JPG","22_18_WF_0195.JPG","22","18","Pine","WF","1",1,"11/17/18","1/31/19"
"481",31428766,12765,12765,1,"SOMETHINGHERE","22_18_WF_0196.JPG","22_18_WF_0197.JPG","22_18_WF_0198.JPG","22","18","Pine","WF","1",1,"11/17/18","1/31/19"
"482",31428767,433,433,1,"DEERWHITETAILED","22_18_WF_0199.JPG","22_18_WF_0200.JPG","22_18_WF_0201.JPG","22","18","Pine","WF","1",1,"11/17/18","1/31/19"
"483",31428768,434,434,1,"DEERWHITETAILED","22_18_WF_0202.JPG","22_18_WF_0203.JPG","22_18_WF_0204.JPG","22","18","Pine","WF","1",1,"11/17/18","1/31/19"
"484",31428769,435,435,1,"DEERWHITETAILED","22_18_WF_0205.JPG","22_18_WF_0206.JPG","22_18_WF_0207.JPG","22","18","Pine","WF","1",1,"11/17/18","1/31/19"
"485",31428770,436,436,1,"DEERWHITETAILED","22_18_WF_0208.JPG","22_18_WF_0209.JPG","22_18_WF_0210.JPG","22","18","Pine","WF","1",1,"11/17/18","1/31/19"
"486",31428771,437,437,2,"DEERWHITETAILED","22_18_WF_0211.JPG","22_18_WF_0212.JPG","22_18_WF_0213.JPG","22","18","Pine","WF","1",1,"11/17/18","1/31/19"
"487",31428772,438,438,1,"DEERWHITETAILED","22_18_WF_0214.JPG","22_18_WF_0215.JPG","22_18_WF_0216.JPG","22","18","Pine","WF","1",1,"11/17/18","1/31/19"
"488",31428773,439,439,1,"DEERWHITETAILED","22_18_WF_0217.JPG","22_18_WF_0218.JPG","22_18_WF_0219.JPG","22","18","Pine","WF","1",1,"11/17/18","1/31/19"
"489",31428774,440,440,1,"DEERWHITETAILED","22_18_WF_0220.JPG","22_18_WF_0221.JPG","22_18_WF_0222.JPG","22","18","Pine","WF","1",1,"11/17/18","1/31/19"
"490",31428775,441,441,1,"DEERWHITETAILED","22_18_WF_0223.JPG","22_18_WF_0224.JPG","22_18_WF_0225.JPG","22","18","Pine","WF","1",1,"11/17/18","1/31/19"
"491",31428776,442,442,1,"DEERWHITETAILED","22_18_WF_0226.JPG","22_18_WF_0227.JPG","22_18_WF_0228.JPG","22","18","Pine","WF","1",1,"11/17/18","1/31/19"
"492",31428777,443,443,1,"DEERWHITETAILED","22_18_WF_0229.JPG","22_18_WF_0230.JPG","22_18_WF_0231.JPG","22","18","Pine","WF","1",1,"11/17/18","1/31/19"
"493",31428778,444,444,1,"DEERWHITETAILED","22_18_WF_0232.JPG","22_18_WF_0233.JPG","22_18_WF_0234.JPG","22","18","Pine","WF","1",1,"11/17/18","1/31/19"
"494",31428779,445,445,1,"DEERWHITETAILED","22_18_WF_0235.JPG","22_18_WF_0236.JPG","22_18_WF_0237.JPG","22","18","Pine","WF","1",1,"11/17/18","1/31/19"
"495",31428780,446,446,1,"DEERWHITETAILED","22_18_WF_0238.JPG","22_18_WF_0239.JPG","22_18_WF_0240.JPG","22","18","Pine","WF","1",1,"11/17/18","1/31/19"
"496",31428781,447,447,1,"DEERWHITETAILED","22_18_WF_0241.JPG","22_18_WF_0242.JPG","22_18_WF_0243.JPG","22","18","Pine","WF","1",1,"11/17/18","1/31/19"
"497",31428782,448,448,1,"DEERWHITETAILED","22_18_WF_0244.JPG","22_18_WF_0245.JPG","22_18_WF_0246.JPG","22","18","Pine","WF","1",1,"11/17/18","1/31/19"
"498",31428783,449,449,1,"DEERWHITETAILED","22_18_WF_0247.JPG","22_18_WF_0248.JPG","22_18_WF_0249.JPG","22","18","Pine","WF","1",1,"11/17/18","1/31/19"
"499",31428784,12764,12764,1,"DEERWHITETAILED","22_18_WF_0250.JPG","22_18_WF_0251.JPG","22_18_WF_0252.JPG","22","18","Pine","WF","1",1,"11/17/18","1/31/19"
"500",31428785,450,450,1,"DEERWHITETAILED","22_18_WF_0253.JPG","22_18_WF_0254.JPG","22_18_WF_0255.JPG","22","18","Pine","WF","1",1,"11/17/18","1/31/19"
"501",31428786,451,451,1,"DEERWHITETAILED","22_18_WF_0256.JPG","22_18_WF_0257.JPG","22_18_WF_0258.JPG","22","18","Pine","WF","1",1,"11/17/18","1/31/19"
"502",31428787,452,452,1,"DEERWHITETAILED","22_18_WF_0259.JPG","22_18_WF_0260.JPG","22_18_WF_0261.JPG","22","18","Pine","WF","1",1,"11/17/18","1/31/19"
"503",31428788,453,453,2,"DEERWHITETAILED","22_18_WF_0262.JPG","22_18_WF_0263.JPG","22_18_WF_0264.JPG","22","18","Pine","WF","1",1,"11/17/18","1/31/19"
"504",31428789,454,454,1,"DEERWHITETAILED","22_18_WF_0265.JPG","22_18_WF_0266.JPG","22_18_WF_0267.JPG","22","18","Pine","WF","1",1,"11/17/18","1/31/19"
"505",31428790,12763,12763,1,"DEERWHITETAILED","22_18_WF_0268.JPG","22_18_WF_0269.JPG","22_18_WF_0270.JPG","22","18","Pine","WF","1",1,"11/17/18","1/31/19"
"506",31428791,12762,12762,1,"DEERWHITETAILED","22_18_WF_0271.JPG","22_18_WF_0272.JPG","22_18_WF_0273.JPG","22","18","Pine","WF","1",1,"11/17/18","1/31/19"
"507",31428792,455,455,1,"DEERWHITETAILED","22_18_WF_0274.JPG","22_18_WF_0275.JPG","22_18_WF_0276.JPG","22","18","Pine","WF","1",1,"11/17/18","1/31/19"
"508",31428793,456,456,1,"DEERWHITETAILED","22_18_WF_0277.JPG","22_18_WF_0278.JPG","22_18_WF_0279.JPG","22","18","Pine","WF","1",1,"11/17/18","1/31/19"
"509",31428794,457,457,1,"NOTHINGHERE","22_18_WF_0280.JPG","22_18_WF_0281.JPG","22_18_WF_0282.JPG","22","18","Pine","WF","1",1,"11/17/18","1/31/19"
"510",31428795,458,458,2,"NOTHINGHERE","22_18_WF_0283.JPG","22_18_WF_0284.JPG","22_18_WF_0285.JPG","22","18","Pine","WF","1",1,"11/17/18","1/31/19"
"511",31428796,459,459,2,"NOTHINGHERE","22_18_WF_0286.JPG","22_18_WF_0287.JPG","22_18_WF_0288.JPG","22","18","Pine","WF","1",1,"11/17/18","1/31/19"
"512",31428797,460,460,1,"DEERWHITETAILED","22_18_WF_0289.JPG","22_18_WF_0290.JPG","22_18_WF_0291.JPG","22","18","Pine","WF","1",1,"11/17/18","1/31/19"
"513",31428798,461,461,1,"DEERWHITETAILED","22_18_WF_0292.JPG","22_18_WF_0293.JPG","22_18_WF_0294.JPG","22","18","Pine","WF","1",1,"11/17/18","1/31/19"
"514",31428799,462,462,1,"DEERWHITETAILED","22_18_WF_0295.JPG","22_18_WF_0296.JPG","22_18_WF_0297.JPG","22","18","Pine","WF","1",1,"11/17/18","1/31/19"
"515",31428800,12761,12761,1,"DEERWHITETAILED","22_18_WF_0298.JPG","22_18_WF_0299.JPG","22_18_WF_0300.JPG","22","18","Pine","WF","1",1,"11/17/18","1/31/19"
"516",31428801,463,463,1,"DEERWHITETAILED","22_18_WF_0301.JPG","22_18_WF_0302.JPG","22_18_WF_0303.JPG","22","18","Pine","WF","1",1,"11/17/18","1/31/19"
"517",31428802,464,464,1,"DEERWHITETAILED","22_18_WF_0304.JPG","22_18_WF_0305.JPG","22_18_WF_0306.JPG","22","18","Pine","WF","1",1,"11/17/18","1/31/19"
"518",31428803,465,465,1,"DEERWHITETAILED","22_18_WF_0307.JPG","22_18_WF_0308.JPG","22_18_WF_0309.JPG","22","18","Pine","WF","1",1,"11/17/18","1/31/19"
"519",31428804,466,466,1,"DEERWHITETAILED","22_18_WF_0310.JPG","22_18_WF_0311.JPG","22_18_WF_0312.JPG","22","18","Pine","WF","1",1,"11/17/18","1/31/19"
"520",31428805,467,467,1,"DEERWHITETAILED","22_18_WF_0313.JPG","22_18_WF_0314.JPG","22_18_WF_0315.JPG","22","18","Pine","WF","1",1,"11/17/18","1/31/19"
"521",31428806,468,468,1,"DEERWHITETAILED","22_18_WF_0316.JPG","22_18_WF_0317.JPG","22_18_WF_0318.JPG","22","18","Pine","WF","1",1,"11/17/18","1/31/19"
"522",31428807,469,469,1,"DEERWHITETAILED","22_18_WF_0319.JPG","22_18_WF_0320.JPG","22_18_WF_0321.JPG","22","18","Pine","WF","1",1,"11/17/18","1/31/19"
"523",31428808,470,470,1,"DEERWHITETAILED","22_18_WF_0325.JPG","22_18_WF_0326.JPG","22_18_WF_0327.JPG","22","18","Pine","WF","1",1,"11/17/18","1/31/19"
"524",31428809,471,471,1,"DEERWHITETAILED","22_18_WF_0328.JPG","22_18_WF_0329.JPG","22_18_WF_0330.JPG","22","18","Pine","WF","1",1,"11/17/18","1/31/19"
"525",31428810,472,472,1,"DEERWHITETAILED","22_18_WF_0331.JPG","22_18_WF_0332.JPG","22_18_WF_0333.JPG","22","18","Pine","WF","1",1,"11/17/18","1/31/19"
"526",31428811,473,473,1,"DEERWHITETAILED","22_18_WF_0334.JPG","22_18_WF_0335.JPG","22_18_WF_0336.JPG","22","18","Pine","WF","1",1,"11/17/18","1/31/19"
"527",31428812,474,474,1,"DEERWHITETAILED","22_18_WF_0337.JPG","22_18_WF_0338.JPG","22_18_WF_0339.JPG","22","18","Pine","WF","1",1,"11/17/18","1/31/19"
"528",31428813,475,475,1,"DEERWHITETAILED","22_18_WF_0340.JPG","22_18_WF_0341.JPG","22_18_WF_0342.JPG","22","18","Pine","WF","1",1,"11/17/18","1/31/19"
"529",31428814,476,476,1,"DEERWHITETAILED","22_18_WF_0343.JPG","22_18_WF_0344.JPG","22_18_WF_0345.JPG","22","18","Pine","WF","1",1,"11/17/18","1/31/19"
"530",31428815,477,477,1,"DEERWHITETAILED","22_18_WF_0346.JPG","22_18_WF_0347.JPG","22_18_WF_0348.JPG","22","18","Pine","WF","1",1,"11/17/18","1/31/19"
"531",31428816,478,478,1,"DEERWHITETAILED","22_18_WF_0349.JPG","22_18_WF_0350.JPG","22_18_WF_0351.JPG","22","18","Pine","WF","1",1,"11/17/18","1/31/19"
"532",31428817,479,479,1,"DEERWHITETAILED","22_18_WF_0352.JPG","22_18_WF_0353.JPG","22_18_WF_0354.JPG","22","18","Pine","WF","1",1,"11/17/18","1/31/19"
"533",31428818,480,480,1,"DEERWHITETAILED","22_18_WF_0355.JPG","22_18_WF_0356.JPG","22_18_WF_0357.JPG","22","18","Pine","WF","1",1,"11/17/18","1/31/19"
"534",31428819,481,481,1,"DEERWHITETAILED","22_18_WF_0358.JPG","22_18_WF_0359.JPG","22_18_WF_0360.JPG","22","18","Pine","WF","1",1,"11/17/18","1/31/19"
"535",31428820,482,482,1,"DEERWHITETAILED","22_18_WF_0361.JPG","22_18_WF_0362.JPG","22_18_WF_0363.JPG","22","18","Pine","WF","1",1,"11/17/18","1/31/19"
"536",31428821,483,483,1,"DEERWHITETAILED","22_18_WF_0364.JPG","22_18_WF_0365.JPG","22_18_WF_0366.JPG","22","18","Pine","WF","1",1,"11/17/18","1/31/19"
"537",31428822,484,484,1,"DEERWHITETAILED","22_18_WF_0367.JPG","22_18_WF_0368.JPG","22_18_WF_0369.JPG","22","18","Pine","WF","1",1,"11/17/18","1/31/19"
"538",31428823,485,485,1,"DEERWHITETAILED","22_18_WF_0370.JPG","22_18_WF_0371.JPG","22_18_WF_0372.JPG","22","18","Pine","WF","1",1,"11/17/18","1/31/19"
"539",31428824,486,486,1,"HUMAN","22_18_WF_0373.JPG","22_18_WF_0374.JPG","22_18_WF_0375.JPG","22","18","Pine","WF","1",1,"11/17/18","1/31/19"
"540",31428825,487,487,1,"DEERWHITETAILED","23_03_SH_0001.JPG","23_03_SH_0002.JPG","23_03_SH_0003.JPG","23","3","Deciduous","SH","1",1,"11/14/18","2/11/19"
"541",31428826,488,488,1,"DEERWHITETAILED","23_03_SH_0004.JPG","23_03_SH_0005.JPG","23_03_SH_0006.JPG","23","3","Deciduous","SH","1",1,"11/14/18","2/11/19"
"542",31428827,489,489,1,"SQUIRRELGRAY","23_03_SH_0007.JPG","23_03_SH_0008.JPG","23_03_SH_0009.JPG","23","3","Deciduous","SH","1",1,"11/14/18","2/11/19"
"543",31428828,490,490,1,"SQUIRRELGRAY","23_03_SH_0010.JPG","23_03_SH_0011.JPG","23_03_SH_0012.JPG","23","3","Deciduous","SH","1",1,"11/14/18","2/11/19"
"544",31428829,491,491,1,"NOTHINGHERE","23_03_SH_0013.JPG","23_03_SH_0014.JPG","23_03_SH_0015.JPG","23","3","Deciduous","SH","1",1,"11/14/18","2/11/19"
"545",31428830,492,492,1,"DEERWHITETAILED","23_03_SH_0016.JPG","23_03_SH_0017.JPG","23_03_SH_0018.JPG","23","3","Deciduous","SH","1",1,"11/14/18","2/11/19"
"546",31428831,493,493,1,"SQUIRRELGRAY","23_03_SH_0019.JPG","23_03_SH_0020.JPG","23_03_SH_0021.JPG","23","3","Deciduous","SH","1",1,"11/14/18","2/11/19"
"547",31428832,494,494,1,"DEERWHITETAILED","23_03_SH_0022.JPG","23_03_SH_0023.JPG","23_03_SH_0024.JPG","23","3","Deciduous","SH","1",1,"11/14/18","2/11/19"
"548",31428833,495,495,1,"DEERWHITETAILED","23_03_SH_0025.JPG","23_03_SH_0026.JPG","23_03_SH_0027.JPG","23","3","Deciduous","SH","1",1,"11/14/18","2/11/19"
"549",31428834,496,496,1,"SQUIRRELGRAY","23_03_SH_0028.JPG","23_03_SH_0029.JPG","23_03_SH_0030.JPG","23","3","Deciduous","SH","1",1,"11/14/18","2/11/19"
"550",31428835,12760,12760,1,"FOXRED","23_03_SH_0031.JPG","23_03_SH_0032.JPG","23_03_SH_0033.JPG","23","3","Deciduous","SH","1",1,"11/14/18","2/11/19"
"551",31428836,497,497,1,"NOTHINGHERE","23_03_SH_0034.JPG","23_03_SH_0035.JPG","23_03_SH_0036.JPG","23","3","Deciduous","SH","1",1,"11/14/18","2/11/19"
"552",31428837,498,498,1,"RACCOON","23_03_SH_0037.JPG","23_03_SH_0038.JPG","23_03_SH_0039.JPG","23","3","Deciduous","SH","1",1,"11/14/18","2/11/19"
"553",31428838,499,499,1,"COYOTE","23_03_SH_0040.JPG","23_03_SH_0041.JPG","23_03_SH_0042.JPG","23","3","Deciduous","SH","1",1,"11/14/18","2/11/19"
"554",31428839,500,500,1,"DEERWHITETAILED","23_03_SH_0043.JPG","23_03_SH_0044.JPG","23_03_SH_0045.JPG","23","3","Deciduous","SH","1",1,"11/14/18","2/11/19"
"555",31428840,501,501,1,"DEERWHITETAILED","23_03_SH_0046.JPG","23_03_SH_0047.JPG","23_03_SH_0048.JPG","23","3","Deciduous","SH","1",1,"11/14/18","2/11/19"
"556",31428841,502,502,1,"DEERWHITETAILED","23_03_SH_0049.JPG","23_03_SH_0050.JPG","23_03_SH_0051.JPG","23","3","Deciduous","SH","1",1,"11/14/18","2/11/19"
"557",31428842,503,503,2,"DEERWHITETAILED","23_03_SH_0052.JPG","23_03_SH_0053.JPG","23_03_SH_0054.JPG","23","3","Deciduous","SH","1",1,"11/14/18","2/11/19"
"558",31428843,504,504,2,"SOMETHINGHERE","23_03_SH_0055.JPG","23_03_SH_0056.JPG","23_03_SH_0057.JPG","23","3","Deciduous","SH","1",1,"11/14/18","2/11/19"
"559",31428844,505,505,1,"OTHERBIRD","23_03_SH_0058.JPG","23_03_SH_0059.JPG","23_03_SH_0060.JPG","23","3","Deciduous","SH","1",1,"11/14/18","2/11/19"
"560",31428845,506,506,1,"DEERWHITETAILED","23_03_SH_0061.JPG","23_03_SH_0062.JPG","23_03_SH_0063.JPG","23","3","Deciduous","SH","1",1,"11/14/18","2/11/19"
"561",31428846,507,507,2,"DEERWHITETAILED","23_03_SH_0064.JPG","23_03_SH_0065.JPG","23_03_SH_0066.JPG","23","3","Deciduous","SH","1",1,"11/14/18","2/11/19"
"562",31428847,508,508,1,"DEERWHITETAILED","23_03_SH_0067.JPG","23_03_SH_0068.JPG","23_03_SH_0069.JPG","23","3","Deciduous","SH","1",1,"11/14/18","2/11/19"
"563",31428848,509,509,2,"DEERWHITETAILED","23_03_SH_0070.JPG","23_03_SH_0071.JPG","23_03_SH_0072.JPG","23","3","Deciduous","SH","1",1,"11/14/18","2/11/19"
"564",31428849,510,510,1,"NOTHINGHERE","23_03_SH_0073.JPG","23_03_SH_0074.JPG","23_03_SH_0075.JPG","23","3","Deciduous","SH","1",1,"11/14/18","2/11/19"
"565",31428850,511,511,1,"NOTHINGHERE","23_03_SH_0076.JPG","23_03_SH_0077.JPG","23_03_SH_0078.JPG","23","3","Deciduous","SH","1",1,"11/14/18","2/11/19"
"566",31428851,512,512,2,"DEERWHITETAILED","23_03_SH_0079.JPG","23_03_SH_0080.JPG","23_03_SH_0081.JPG","23","3","Deciduous","SH","1",1,"11/14/18","2/11/19"
"567",31428852,513,513,2,"SOMETHINGHERE","23_03_SH_0082.JPG","23_03_SH_0083.JPG","23_03_SH_0084.JPG","23","3","Deciduous","SH","1",1,"11/14/18","2/11/19"
"568",31428853,514,514,1,"NOTHINGHERE","23_03_SH_0085.JPG","23_03_SH_0086.JPG","23_03_SH_0087.JPG","23","3","Deciduous","SH","1",1,"11/14/18","2/11/19"
"569",31428854,515,515,1,"DEERWHITETAILED","23_03_SH_0088.JPG","23_03_SH_0089.JPG","23_03_SH_0090.JPG","23","3","Deciduous","SH","1",1,"11/14/18","2/11/19"
"570",31428855,516,516,1,"DEERWHITETAILED","23_03_SH_0091.JPG","23_03_SH_0092.JPG","23_03_SH_0093.JPG","23","3","Deciduous","SH","1",1,"11/14/18","2/11/19"
"571",31428856,517,517,1,"SQUIRRELGRAY","23_03_SH_0094.JPG","23_03_SH_0095.JPG","23_03_SH_0096.JPG","23","3","Deciduous","SH","1",1,"11/14/18","2/11/19"
"572",31428857,518,518,1,"DEERWHITETAILED","23_03_SH_0097.JPG","23_03_SH_0098.JPG","23_03_SH_0099.JPG","23","3","Deciduous","SH","1",1,"11/14/18","2/11/19"
"573",31428858,519,519,1,"NOTHINGHERE","23_03_SH_0100.JPG","23_03_SH_0101.JPG","23_03_SH_0102.JPG","23","3","Deciduous","SH","1",1,"11/14/18","2/11/19"
"574",31428859,520,520,1,"NOTHINGHERE","23_03_SH_0103.JPG","23_03_SH_0104.JPG","23_03_SH_0105.JPG","23","3","Deciduous","SH","1",1,"11/14/18","2/11/19"
"575",31428860,521,521,1,"NOTHINGHERE","23_03_SH_0106.JPG","23_03_SH_0107.JPG","23_03_SH_0108.JPG","23","3","Deciduous","SH","1",1,"11/14/18","2/11/19"
"576",31428861,12759,12759,1,"NOTHINGHERE","23_03_SH_0109.JPG","23_03_SH_0110.JPG","23_03_SH_0111.JPG","23","3","Deciduous","SH","1",1,"11/14/18","2/11/19"
"577",31428862,522,522,2,"DEERWHITETAILED","23_03_SH_0112.JPG","23_03_SH_0113.JPG","23_03_SH_0114.JPG","23","3","Deciduous","SH","1",1,"11/14/18","2/11/19"
"578",31428863,12758,12758,1,"DEERWHITETAILED","23_03_SH_0115.JPG","23_03_SH_0116.JPG","23_03_SH_0117.JPG","23","3","Deciduous","SH","1",1,"11/14/18","2/11/19"
"579",31428864,523,523,1,"DEERWHITETAILED","23_03_SH_0118.JPG","23_03_SH_0119.JPG","23_03_SH_0120.JPG","23","3","Deciduous","SH","1",1,"11/14/18","2/11/19"
"580",31428865,524,524,1,"HUMAN","24_04_BC_0001.JPG","24_04_BC_0002.JPG","24_04_BC_0003.JPG","24","4","Deciduous","BC","1",1,"11/15/18","3/4/19"
"581",31428866,525,525,1,"HUMAN","24_04_BC_0004.JPG","24_04_BC_0005.JPG","24_04_BC_0006.JPG","24","4","Deciduous","BC","1",1,"11/15/18","3/4/19"
"582",31428867,526,526,1,"HUMAN","24_04_BC_0007.JPG","24_04_BC_0008.JPG","24_04_BC_0009.JPG","24","4","Deciduous","BC","1",1,"11/15/18","3/4/19"
"583",31428868,527,527,1,"HUMAN","24_04_BC_0010.JPG","24_04_BC_0011.JPG","24_04_BC_0012.JPG","24","4","Deciduous","BC","1",1,"11/15/18","3/4/19"
"584",31428869,528,528,1,"HUMAN","24_04_BC_0013.JPG","24_04_BC_0014.JPG","24_04_BC_0015.JPG","24","4","Deciduous","BC","1",1,"11/15/18","3/4/19"
"585",31428870,529,529,1,"HUMAN","24_04_BC_0016.JPG","24_04_BC_0017.JPG","24_04_BC_0018.JPG","24","4","Deciduous","BC","1",1,"11/15/18","3/4/19"
"586",31428871,530,530,1,"HUMAN","24_04_BC_0019.JPG","24_04_BC_0020.JPG","24_04_BC_0021.JPG","24","4","Deciduous","BC","1",1,"11/15/18","3/4/19"
"587",31428872,531,531,1,"HUMAN","24_04_BC_0022.JPG","24_04_BC_0023.JPG","24_04_BC_0024.JPG","24","4","Deciduous","BC","1",1,"11/15/18","3/4/19"
"588",31428873,532,532,1,"HUMAN","24_04_BC_0025.JPG","24_04_BC_0026.JPG","24_04_BC_0027.JPG","24","4","Deciduous","BC","1",1,"11/15/18","3/4/19"
"589",31428874,533,533,1,"HUMAN","24_04_BC_0028.JPG","24_04_BC_0029.JPG","24_04_BC_0030.JPG","24","4","Deciduous","BC","1",1,"11/15/18","3/4/19"
"590",31428875,534,534,1,"HUMAN","24_04_BC_0031.JPG","24_04_BC_0032.JPG","24_04_BC_0033.JPG","24","4","Deciduous","BC","1",1,"11/15/18","3/4/19"
"591",31428876,535,535,1,"DEERWHITETAILED","24_04_BC_0034.JPG","24_04_BC_0035.JPG","24_04_BC_0036.JPG","24","4","Deciduous","BC","1",1,"11/15/18","3/4/19"
"592",31428877,536,536,1,"DEERWHITETAILED","24_04_BC_0037.JPG","24_04_BC_0038.JPG","24_04_BC_0039.JPG","24","4","Deciduous","BC","1",1,"11/15/18","3/4/19"
"593",31428878,537,537,1,"SQUIRRELGRAY","24_04_BC_0040.JPG","24_04_BC_0041.JPG","24_04_BC_0042.JPG","24","4","Deciduous","BC","1",1,"11/15/18","3/4/19"
"594",31428879,538,538,1,"DEERWHITETAILED","24_04_BC_0043.JPG","24_04_BC_0044.JPG","24_04_BC_0045.JPG","24","4","Deciduous","BC","1",1,"11/15/18","3/4/19"
"595",31428880,539,539,1,"DEERWHITETAILED","24_04_BC_0046.JPG","24_04_BC_0047.JPG","24_04_BC_0048.JPG","24","4","Deciduous","BC","1",1,"11/15/18","3/4/19"
"596",31428881,540,540,2,"DEERWHITETAILED","24_04_BC_0049.JPG","24_04_BC_0050.JPG","24_04_BC_0051.JPG","24","4","Deciduous","BC","1",1,"11/15/18","3/4/19"
"597",31428882,541,541,1,"DEERWHITETAILED","24_04_BC_0052.JPG","24_04_BC_0053.JPG","24_04_BC_0054.JPG","24","4","Deciduous","BC","1",1,"11/15/18","3/4/19"
"598",31428883,542,542,1,"DEERWHITETAILED","24_04_BC_0055.JPG","24_04_BC_0056.JPG","24_04_BC_0057.JPG","24","4","Deciduous","BC","1",1,"11/15/18","3/4/19"
"599",31428884,543,543,1,"DEERWHITETAILED","24_04_BC_0058.JPG","24_04_BC_0059.JPG","24_04_BC_0060.JPG","24","4","Deciduous","BC","1",1,"11/15/18","3/4/19"
"600",31428885,12757,12757,1,"DEERWHITETAILED","24_04_BC_0061.JPG","24_04_BC_0062.JPG","24_04_BC_0063.JPG","24","4","Deciduous","BC","1",1,"11/15/18","3/4/19"
"601",31428886,544,544,1,"SQUIRRELGRAY","24_04_BC_0064.JPG","24_04_BC_0065.JPG","24_04_BC_0066.JPG","24","4","Deciduous","BC","1",1,"11/15/18","3/4/19"
"602",31428887,545,545,2,"SQUIRRELGRAY","24_04_BC_0067.JPG","24_04_BC_0068.JPG","24_04_BC_0069.JPG","24","4","Deciduous","BC","1",1,"11/15/18","3/4/19"
"603",31428888,546,546,1,"DEERWHITETAILED","24_04_BC_0070.JPG","24_04_BC_0071.JPG","24_04_BC_0072.JPG","24","4","Deciduous","BC","1",1,"11/15/18","3/4/19"
"604",31428889,547,547,1,"DEERWHITETAILED","24_04_BC_0073.JPG","24_04_BC_0074.JPG","24_04_BC_0075.JPG","24","4","Deciduous","BC","1",1,"11/15/18","3/4/19"
"605",31428890,548,548,1,"DEERWHITETAILED","24_04_BC_0076.JPG","24_04_BC_0077.JPG","24_04_BC_0078.JPG","24","4","Deciduous","BC","1",1,"11/15/18","3/4/19"
"606",31428891,12756,12756,1,"DEERWHITETAILED","24_04_BC_0079.JPG","24_04_BC_0080.JPG","24_04_BC_0081.JPG","24","4","Deciduous","BC","1",1,"11/15/18","3/4/19"
"607",31428892,549,549,1,"DEERWHITETAILED","24_04_BC_0082.JPG","24_04_BC_0083.JPG","24_04_BC_0084.JPG","24","4","Deciduous","BC","1",1,"11/15/18","3/4/19"
"608",31428893,550,550,1,"DEERWHITETAILED","24_04_BC_0085.JPG","24_04_BC_0086.JPG","24_04_BC_0087.JPG","24","4","Deciduous","BC","1",1,"11/15/18","3/4/19"
"609",31428894,551,551,1,"DEERWHITETAILED","24_04_BC_0088.JPG","24_04_BC_0089.JPG","24_04_BC_0090.JPG","24","4","Deciduous","BC","1",1,"11/15/18","3/4/19"
"610",31428895,552,552,1,"HUMAN","25_09_SH_0001.JPG","25_09_SH_0002.JPG","25_09_SH_0003.JPG","25","9","Deciduous","SH","1",1,"11/14/18","2/11/19"
"611",31428896,553,553,1,"DOMESTICDOG","25_09_SH_0004.JPG","25_09_SH_0005.JPG","25_09_SH_0006.JPG","25","9","Deciduous","SH","1",1,"11/14/18","2/11/19"
"612",31428897,554,554,2,"DOMESTICDOG","25_09_SH_0007.JPG","25_09_SH_0008.JPG",NA,"25","9","Deciduous","SH","1",1,"11/14/18","2/11/19"
"613",31428898,555,555,1,"DOMESTICDOG","25_09_SH_0012.JPG","25_09_SH_0013.JPG","25_09_SH_0014.JPG","25","9","Deciduous","SH","1",1,"11/14/18","2/11/19"
"614",31428899,556,556,3,"OTHERSMALLMAMMAL","25_09_SH_0015.JPG","25_09_SH_0016.JPG","25_09_SH_0017.JPG","25","9","Deciduous","SH","1",1,"11/14/18","2/11/19"
"615",31428900,557,557,1,"NOTHINGHERE","25_09_SH_0018.JPG","25_09_SH_0019.JPG","25_09_SH_0020.JPG","25","9","Deciduous","SH","1",1,"11/14/18","2/11/19"
"616",31428901,558,558,1,"DEERWHITETAILED","25_09_SH_0021.JPG","25_09_SH_0022.JPG","25_09_SH_0023.JPG","25","9","Deciduous","SH","1",1,"11/14/18","2/11/19"
"617",31428902,559,559,1,"DEERWHITETAILED","25_09_SH_0024.JPG","25_09_SH_0025.JPG","25_09_SH_0026.JPG","25","9","Deciduous","SH","1",1,"11/14/18","2/11/19"
"618",31428903,560,560,1,"DEERWHITETAILED","25_09_SH_0027.JPG","25_09_SH_0028.JPG","25_09_SH_0029.JPG","25","9","Deciduous","SH","1",1,"11/14/18","2/11/19"
"619",31428904,561,561,1,"DEERWHITETAILED","25_09_SH_0030.JPG","25_09_SH_0031.JPG","25_09_SH_0032.JPG","25","9","Deciduous","SH","1",1,"11/14/18","2/11/19"
"620",31428905,562,562,1,"DEERWHITETAILED","25_09_SH_0033.JPG","25_09_SH_0034.JPG","25_09_SH_0035.JPG","25","9","Deciduous","SH","1",1,"11/14/18","2/11/19"
"621",31428906,12755,12755,1,"SQUIRRELGRAY","25_09_SH_0036.JPG","25_09_SH_0037.JPG","25_09_SH_0038.JPG","25","9","Deciduous","SH","1",1,"11/14/18","2/11/19"
"622",31428907,563,563,2,"NOTHINGHERE","25_09_SH_0039.JPG","25_09_SH_0040.JPG","25_09_SH_0041.JPG","25","9","Deciduous","SH","1",1,"11/14/18","2/11/19"
"623",31428908,564,564,1,"COYOTE","25_09_SH_0042.JPG","25_09_SH_0043.JPG","25_09_SH_0044.JPG","25","9","Deciduous","SH","1",1,"11/14/18","2/11/19"
"624",31428909,565,565,1,"DEERWHITETAILED","25_09_SH_0045.JPG","25_09_SH_0046.JPG","25_09_SH_0047.JPG","25","9","Deciduous","SH","1",1,"11/14/18","2/11/19"
"625",31428910,566,566,1,"OTHERSMALLMAMMAL","25_09_SH_0048.JPG","25_09_SH_0049.JPG","25_09_SH_0050.JPG","25","9","Deciduous","SH","1",1,"11/14/18","2/11/19"
"626",31428911,12754,12754,1,"FOXRED","25_09_SH_0051.JPG","25_09_SH_0052.JPG","25_09_SH_0053.JPG","25","9","Deciduous","SH","1",1,"11/14/18","2/11/19"
"627",31428912,567,567,1,"NOTHINGHERE","25_09_SH_0054.JPG","25_09_SH_0055.JPG","25_09_SH_0056.JPG","25","9","Deciduous","SH","1",1,"11/14/18","2/11/19"
"628",31428913,568,568,1,"NOTHINGHERE","25_09_SH_0057.JPG","25_09_SH_0058.JPG","25_09_SH_0059.JPG","25","9","Deciduous","SH","1",1,"11/14/18","2/11/19"
"629",31428914,569,569,1,"NOTHINGHERE","25_09_SH_0060.JPG","25_09_SH_0061.JPG","25_09_SH_0062.JPG","25","9","Deciduous","SH","1",1,"11/14/18","2/11/19"
"630",31428915,570,570,1,"SQUIRRELGRAY","25_09_SH_0063.JPG","25_09_SH_0064.JPG","25_09_SH_0065.JPG","25","9","Deciduous","SH","1",1,"11/14/18","2/11/19"
"631",31428916,571,571,2,"SQUIRRELGRAY","25_09_SH_0066.JPG","25_09_SH_0067.JPG","25_09_SH_0068.JPG","25","9","Deciduous","SH","1",1,"11/14/18","2/11/19"
"632",31428917,572,572,1,"FOXRED","25_09_SH_0069.JPG","25_09_SH_0070.JPG","25_09_SH_0071.JPG","25","9","Deciduous","SH","1",1,"11/14/18","2/11/19"
"633",31428918,573,573,2,"SQUIRRELRED","25_09_SH_0072.JPG","25_09_SH_0073.JPG","25_09_SH_0074.JPG","25","9","Deciduous","SH","1",1,"11/14/18","2/11/19"
"634",31428919,574,574,1,"DEERWHITETAILED","25_09_SH_0075.JPG","25_09_SH_0076.JPG","25_09_SH_0077.JPG","25","9","Deciduous","SH","1",1,"11/14/18","2/11/19"
"635",31428920,575,575,2,"SQUIRRELGRAY","25_09_SH_0078.JPG","25_09_SH_0079.JPG","25_09_SH_0080.JPG","25","9","Deciduous","SH","1",1,"11/14/18","2/11/19"
"636",31428921,576,576,1,"NOTHINGHERE","25_09_SH_0081.JPG","25_09_SH_0082.JPG","25_09_SH_0083.JPG","25","9","Deciduous","SH","1",1,"11/14/18","2/11/19"
"637",31428922,12753,12753,1,"OTHERSMALLMAMMAL","25_09_SH_0084.JPG","25_09_SH_0085.JPG","25_09_SH_0086.JPG","25","9","Deciduous","SH","1",1,"11/14/18","2/11/19"
"638",31428923,577,577,1,"NOTHINGHERE","27_08_IMG_0028.JPG","27_08_IMG_0029.JPG","27_08_IMG_0030.JPG","27","8","Deciduous","DON","1",1,"12/13/18","2/25/19"
